
  ZVR, 2.05

  stimulus-start        ; stimulus-stop       ; stimulus-unit       ; nof-points; parameter-type; impedance-ohm
  9.00000000000E+03     ; 1.00000000000E+08   ; Hz                  ; 2001      ; S11           ; 50        

  conversion            ; time-domain         ; data-format         ; param-unit; smoothing     ; trace-math
  S                     ; none                ; RI                  ; none      ; none          ; none

  sweep-mode-type       ; notlinear-meas-mode 
  FUNDAMENTAL           ; none                


  freq              ;  reS11        ; imS11         
   9.00000000000E+03;  0.826359     ; 0.442587     
   9.04201843582E+03;  0.827597     ; 0.443521     
   9.08423304375E+03;  0.83084      ; 0.443883     
   9.12664473965E+03;  0.834461     ; 0.443784     
   9.16925444368E+03;  0.830947     ; 0.443976     
   9.21206308028E+03;  0.833587     ; 0.4392       
   9.25507157820E+03;  0.835498     ; 0.435486     
   9.29828087055E+03;  0.835735     ; 0.434211     
   9.34169189477E+03;  0.837175     ; 0.432774     
   9.38530559270E+03;  0.838733     ; 0.431148     
   9.42912291056E+03;  0.839508     ; 0.430041     
   9.47314479899E+03;  0.839975     ; 0.428656     
   9.51737221307E+03;  0.841706     ; 0.42821      
   9.56180611235E+03;  0.84266      ; 0.426071     
   9.60644746085E+03;  0.84428      ; 0.425127     
   9.65129722708E+03;  0.843514     ; 0.423117     
   9.69635638410E+03;  0.844699     ; 0.421143     
   9.74162590948E+03;  0.845644     ; 0.419885     
   9.78710678538E+03;  0.846462     ; 0.419309     
   9.83279999853E+03;  0.848823     ; 0.418134     
   9.87870654027E+03;  0.850613     ; 0.416099     
   9.92482740658E+03;  0.85177      ; 0.414449     
   9.97116359807E+03;  0.851093     ; 0.41327      
   1.00177161200E+04;  0.853879     ; 0.411203     
   1.00644859825E+04;  0.855363     ; 0.410217     
   1.01114742001E+04;  0.856287     ; 0.408988     
   1.01586817922E+04;  0.856259     ; 0.407642     
   1.02061097832E+04;  0.857631     ; 0.406665     
   1.02537592020E+04;  0.858782     ; 0.405006     
   1.03016310823E+04;  0.859457     ; 0.403486     
   1.03497264628E+04;  0.860414     ; 0.401831     
   1.03980463870E+04;  0.861684     ; 0.400769     
   1.04465919031E+04;  0.862652     ; 0.399663     
   1.04953640643E+04;  0.863129     ; 0.397778     
   1.05443639289E+04;  0.863837     ; 0.397191     
   1.05935925599E+04;  0.864743     ; 0.39627      
   1.06430510254E+04;  0.86765      ; 0.396654     
   1.06927403983E+04;  0.868576     ; 0.394228     
   1.07426617568E+04;  0.868984     ; 0.392097     
   1.07928161838E+04;  0.869295     ; 0.389334     
   1.08432047676E+04;  0.870419     ; 0.387779     
   1.08938286014E+04;  0.870439     ; 0.386787     
   1.09446887834E+04;  0.872098     ; 0.385376     
   1.09957864171E+04;  0.872302     ; 0.384334     
   1.10471226110E+04;  0.874218     ; 0.382155     
   1.10986984791E+04;  0.875439     ; 0.381169     
   1.11505151402E+04;  0.876314     ; 0.379765     
   1.12025737185E+04;  0.876339     ; 0.378231     
   1.12548753435E+04;  0.877558     ; 0.377206     
   1.13074211498E+04;  0.878595     ; 0.37575      
   1.13602122776E+04;  0.87952      ; 0.374324     
   1.14132498721E+04;  0.880308     ; 0.373206     
   1.14665350840E+04;  0.880987     ; 0.371766     
   1.15200690694E+04;  0.881892     ; 0.370269     
   1.15738529897E+04;  0.882917     ; 0.368975     
   1.16278880118E+04;  0.884067     ; 0.367825     
   1.16821753081E+04;  0.8847       ; 0.366432     
   1.17367160562E+04;  0.885626     ; 0.364762     
   1.17915114396E+04;  0.886802     ; 0.363569     
   1.18465626470E+04;  0.887735     ; 0.362021     
   1.19018708728E+04;  0.888115     ; 0.361089     
   1.19574373170E+04;  0.888742     ; 0.359918     
   1.20132631851E+04;  0.889981     ; 0.358157     
   1.20693496882E+04;  0.890795     ; 0.357145     
   1.21256980432E+04;  0.891649     ; 0.355465     
   1.21823094727E+04;  0.892511     ; 0.354187     
   1.22391852047E+04;  0.89306      ; 0.352657     
   1.22963264734E+04;  0.893757     ; 0.351729     
   1.23537345184E+04;  0.895103     ; 0.350233     
   1.24114105852E+04;  0.895489     ; 0.349111     
   1.24693559251E+04;  0.896297     ; 0.347736     
   1.25275717953E+04;  0.896962     ; 0.346519     
   1.25860594587E+04;  0.89796      ; 0.345159     
   1.26448201845E+04;  0.89889      ; 0.343886     
   1.27038552473E+04;  0.899622     ; 0.34243      
   1.27631659280E+04;  0.900285     ; 0.341229     
   1.28227535134E+04;  0.900883     ; 0.340114     
   1.28826192962E+04;  0.901776     ; 0.338811     
   1.29427645754E+04;  0.902398     ; 0.337512     
   1.30031906557E+04;  0.903352     ; 0.336038     
   1.30638988481E+04;  0.903811     ; 0.33479      
   1.31248904698E+04;  0.904724     ; 0.333421     
   1.31861668440E+04;  0.905732     ; 0.33182      
   1.32477293002E+04;  0.906233     ; 0.330835     
   1.33095791739E+04;  0.906942     ; 0.329609     
   1.33717178070E+04;  0.907835     ; 0.328439     
   1.34341465477E+04;  0.908163     ; 0.327251     
   1.34968667505E+04;  0.90914      ; 0.325797     
   1.35598797759E+04;  0.910085     ; 0.32427      
   1.36231869913E+04;  0.910645     ; 0.323854     
   1.36867897700E+04;  0.913125     ; 0.323457     
   1.37506894919E+04;  0.916127     ; 0.32294      
   1.38148875435E+04;  0.913888     ; 0.320847     
   1.38793853174E+04;  0.914366     ; 0.319283     
   1.39441842131E+04;  0.915412     ; 0.317244     
   1.40092856364E+04;  0.914383     ; 0.315447     
   1.40746909997E+04;  0.916532     ; 0.314717     
   1.41404017219E+04;  0.916055     ; 0.313716     
   1.42064192289E+04;  0.917594     ; 0.312233     
   1.42727449527E+04;  0.918277     ; 0.311025     
   1.43393803325E+04;  0.919317     ; 0.31002      
   1.44063268138E+04;  0.919924     ; 0.308498     
   1.44735858492E+04;  0.920498     ; 0.307097     
   1.45411588979E+04;  0.921632     ; 0.306458     
   1.46090474259E+04;  0.92219      ; 0.305124     
   1.46772529061E+04;  0.922405     ; 0.303358     
   1.47457768182E+04;  0.923044     ; 0.302702     
   1.48146206490E+04;  0.923476     ; 0.300937     
   1.48837858920E+04;  0.924211     ; 0.299669     
   1.49532740478E+04;  0.924941     ; 0.298429     
   1.50230866240E+04;  0.925317     ; 0.297304     
   1.50932251352E+04;  0.925876     ; 0.295846     
   1.51636911032E+04;  0.926067     ; 0.29523      
   1.52344860567E+04;  0.927281     ; 0.294256     
   1.53056115317E+04;  0.928353     ; 0.2934       
   1.53770690712E+04;  0.928418     ; 0.291781     
   1.54488602256E+04;  0.929342     ; 0.290561     
   1.55209865525E+04;  0.930417     ; 0.289049     
   1.55934496167E+04;  0.930224     ; 0.288072     
   1.56662509902E+04;  0.930018     ; 0.287195     
   1.57393922526E+04;  0.931177     ; 0.285663     
   1.58128749908E+04;  0.931947     ; 0.285034     
   1.58867007989E+04;  0.932552     ; 0.282911     
   1.59608712786E+04;  0.933769     ; 0.282214     
   1.60353880393E+04;  0.933679     ; 0.280917     
   1.61102526974E+04;  0.934036     ; 0.279877     
   1.61854668773E+04;  0.934506     ; 0.278506     
   1.62610322108E+04;  0.935001     ; 0.278001     
   1.63369503372E+04;  0.935218     ; 0.277162     
   1.64132229038E+04;  0.936509     ; 0.275556     
   1.64898515653E+04;  0.936301     ; 0.274511     
   1.65668379841E+04;  0.93693      ; 0.273101     
   1.66441838307E+04;  0.938122     ; 0.271917     
   1.67218907829E+04;  0.939805     ; 0.27193      
   1.67999605267E+04;  0.942135     ; 0.274528     
   1.68783947560E+04;  0.940182     ; 0.269857     
   1.69571951723E+04;  0.938713     ; 0.267103     
   1.70363634853E+04;  0.939669     ; 0.265895     
   1.71159014126E+04;  0.939956     ; 0.26538      
   1.71958106798E+04;  0.940355     ; 0.263927     
   1.72760930207E+04;  0.940864     ; 0.26283      
   1.73567501769E+04;  0.941271     ; 0.261525     
   1.74377838984E+04;  0.94129      ; 0.260379     
   1.75191959432E+04;  0.942456     ; 0.259528     
   1.76009880777E+04;  0.94257      ; 0.258307     
   1.76831620763E+04;  0.943886     ; 0.256977     
   1.77657197220E+04;  0.943844     ; 0.255585     
   1.78486628058E+04;  0.944095     ; 0.2547       
   1.79319931272E+04;  0.944516     ; 0.25387      
   1.80157124941E+04;  0.945333     ; 0.252958     
   1.80998227229E+04;  0.945955     ; 0.252057     
   1.81843256384E+04;  0.946257     ; 0.250465     
   1.82692230739E+04;  0.946896     ; 0.247622     
   1.83545168714E+04;  0.947909     ; 0.247285     
   1.84402088813E+04;  0.948029     ; 0.247316     
   1.85263009628E+04;  0.94747      ; 0.247378     
   1.86127949837E+04;  0.948303     ; 0.245675     
   1.86996928205E+04;  0.948779     ; 0.244396     
   1.87869963586E+04;  0.948981     ; 0.243461     
   1.88747074920E+04;  0.949396     ; 0.242415     
   1.89628281237E+04;  0.949895     ; 0.241346     
   1.90513601656E+04;  0.950452     ; 0.240345     
   1.91403055383E+04;  0.951242     ; 0.239191     
   1.92296661716E+04;  0.95124      ; 0.238241     
   1.93194440042E+04;  0.951751     ; 0.237266     
   1.94096409840E+04;  0.952273     ; 0.236457     
   1.95002590678E+04;  0.952709     ; 0.235075     
   1.95913002216E+04;  0.953123     ; 0.234102     
   1.96827664206E+04;  0.953303     ; 0.232892     
   1.97746596492E+04;  0.953247     ; 0.231943     
   1.98669819012E+04;  0.954019     ; 0.231222     
   1.99597351794E+04;  0.954826     ; 0.230187     
   2.00529214962E+04;  0.965397     ; 0.222891     
   2.01465428734E+04;  0.966119     ; 0.220971     
   2.02406013422E+04;  0.966379     ; 0.22016      
   2.03350989431E+04;  0.966372     ; 0.21911      
   2.04300377265E+04;  0.966949     ; 0.218167     
   2.05254197519E+04;  0.967042     ; 0.217087     
   2.06212470888E+04;  0.967441     ; 0.216219     
   2.07175218163E+04;  0.967943     ; 0.215397     
   2.08142460231E+04;  0.968218     ; 0.214326     
   2.09114218076E+04;  0.968712     ; 0.213492     
   2.10090512782E+04;  0.968978     ; 0.212472     
   2.11071365529E+04;  0.969366     ; 0.211452     
   2.12056797599E+04;  0.969719     ; 0.210582     
   2.13046830370E+04;  0.969532     ; 0.210107     
   2.14041485322E+04;  0.969771     ; 0.209223     
   2.15040784035E+04;  0.970569     ; 0.207777     
   2.16044748189E+04;  0.970848     ; 0.20681      
   2.17053399565E+04;  0.971134     ; 0.20564      
   2.18066760047E+04;  0.971577     ; 0.20484      
   2.19084851621E+04;  0.971756     ; 0.204058     
   2.20107696374E+04;  0.972094     ; 0.202916     
   2.21135316497E+04;  0.972477     ; 0.201992     
   2.22167734287E+04;  0.972877     ; 0.200953     
   2.23204972141E+04;  0.973048     ; 0.20012      
   2.24247052562E+04;  0.973273     ; 0.199029     
   2.25293998161E+04;  0.973693     ; 0.198593     
   2.26345831650E+04;  0.973844     ; 0.197616     
   2.27402575850E+04;  0.974012     ; 0.196378     
   2.28464253688E+04;  0.974604     ; 0.195708     
   2.29530888197E+04;  0.974967     ; 0.194517     
   2.30602502519E+04;  0.975299     ; 0.193573     
   2.31679119902E+04;  0.975448     ; 0.192806     
   2.32760763706E+04;  0.975957     ; 0.191956     
   2.33847457396E+04;  0.975976     ; 0.191037     
   2.34939224549E+04;  0.976232     ; 0.190046     
   2.36036088852E+04;  0.976503     ; 0.189179     
   2.37138074102E+04;  0.976786     ; 0.188353     
   2.38245204208E+04;  0.977053     ; 0.187229     
   2.39357503188E+04;  0.977212     ; 0.186832     
   2.40474995175E+04;  0.97747      ; 0.185873     
   2.41597704414E+04;  0.978208     ; 0.184675     
   2.42725655263E+04;  0.977935     ; 0.182966     
   2.43858872193E+04;  0.977923     ; 0.183085     
   2.44997379790E+04;  0.978424     ; 0.182293     
   2.46141202754E+04;  0.978487     ; 0.180775     
   2.47290365902E+04;  0.979436     ; 0.180063     
   2.48444894165E+04;  0.97913      ; 0.179878     
   2.49604812592E+04;  0.979477     ; 0.178809     
   2.50770146347E+04;  0.980027     ; 0.177489     
   2.51940920714E+04;  0.980271     ; 0.177027     
   2.53117161092E+04;  0.980323     ; 0.175874     
   2.54298893002E+04;  0.980523     ; 0.175203     
   2.55486142082E+04;  0.98069      ; 0.174221     
   2.56678934089E+04;  0.98082      ; 0.17315      
   2.57877294902E+04;  0.981008     ; 0.172315     
   2.59081250521E+04;  0.981518     ; 0.171766     
   2.60290827065E+04;  0.981648     ; 0.170816     
   2.61506050777E+04;  0.981814     ; 0.169912     
   2.62726948023E+04;  0.981989     ; 0.169431     
   2.63953545290E+04;  0.982218     ; 0.168526     
   2.65185869190E+04;  0.982695     ; 0.167784     
   2.66423946460E+04;  0.982755     ; 0.16683      
   2.67667803959E+04;  0.9832       ; 0.165795     
   2.68917468675E+04;  0.983268     ; 0.165289     
   2.70172967719E+04;  0.9833       ; 0.164224     
   2.71434328331E+04;  0.983749     ; 0.163623     
   2.72701577876E+04;  0.983974     ; 0.162527     
   2.73974743848E+04;  0.984048     ; 0.162091     
   2.75253853869E+04;  0.984163     ; 0.16094      
   2.76538935691E+04;  0.984485     ; 0.160254     
   2.77830017193E+04;  0.984753     ; 0.159384     
   2.79127126387E+04;  0.98475      ; 0.158523     
   2.80430291415E+04;  0.984941     ; 0.157649     
   2.81739540548E+04;  0.985502     ; 0.157053     
   2.83054902193E+04;  0.985448     ; 0.156266     
   2.84376404886E+04;  0.98576      ; 0.155456     
   2.85704077300E+04;  0.985969     ; 0.154749     
   2.87037948237E+04;  0.986261     ; 0.154102     
   2.88378046638E+04;  0.986217     ; 0.153334     
   2.89724401576E+04;  0.986342     ; 0.152413     
   2.91077042262E+04;  0.986682     ; 0.151636     
   2.92435998042E+04;  0.986976     ; 0.150988     
   2.93801298399E+04;  0.987087     ; 0.150174     
   2.95172972955E+04;  0.987318     ; 0.149478     
   2.96551051468E+04;  0.987405     ; 0.148745     
   2.97935563837E+04;  0.987795     ; 0.147764     
   2.99326540101E+04;  0.987793     ; 0.147167     
   3.00724010436E+04;  0.987914     ; 0.146261     
   3.02128005161E+04;  0.988208     ; 0.145612     
   3.03538554739E+04;  0.988125     ; 0.144806     
   3.04955689770E+04;  0.988566     ; 0.14401      
   3.06379441001E+04;  0.988757     ; 0.143328     
   3.07809839321E+04;  0.989958     ; 0.142846     
   3.09246915763E+04;  0.989901     ; 0.142035     
   3.10690701505E+04;  0.989291     ; 0.141284     
   3.12141227872E+04;  0.989221     ; 0.140371     
   3.13598526333E+04;  0.98958      ; 0.13979      
   3.15062628506E+04;  0.990545     ; 0.139055     
   3.16533566154E+04;  0.98975      ; 0.138566     
   3.18011371191E+04;  0.989873     ; 0.137708     
   3.19496075679E+04;  0.990251     ; 0.136932     
   3.20987711829E+04;  0.991219     ; 0.13615      
   3.22486312004E+04;  0.991488     ; 0.135563     
   3.23991908715E+04;  0.991496     ; 0.134943     
   3.25504534629E+04;  0.990556     ; 0.13415      
   3.27024222562E+04;  0.99075      ; 0.133446     
   3.28551005485E+04;  0.992135     ; 0.132774     
   3.30084916523E+04;  0.99117      ; 0.132052     
   3.31625988954E+04;  0.991273     ; 0.131216     
   3.33174256213E+04;  0.99167      ; 0.130652     
   3.34729751891E+04;  0.992621     ; 0.129952     
   3.36292509735E+04;  0.991779     ; 0.129433     
   3.37862563651E+04;  0.991818     ; 0.128595     
   3.39439947700E+04;  0.992154     ; 0.127982     
   3.41024696107E+04;  0.993075     ; 0.127339     
   3.42616843252E+04;  0.993294     ; 0.126581     
   3.44216423679E+04;  0.993281     ; 0.125941     
   3.45823472091E+04;  0.993528     ; 0.125464     
   3.47438023354E+04;  0.993475     ; 0.124556     
   3.49060112497E+04;  0.992941     ; 0.123941     
   3.50689774712E+04;  0.992981     ; 0.122999     
   3.52327045355E+04;  0.99325      ; 0.122631     
   3.53971959949E+04;  0.993129     ; 0.121965     
   3.55624554180E+04;  0.994252     ; 0.121567     
   3.57284863903E+04;  0.99444      ; 0.120732     
   3.58952925139E+04;  0.994495     ; 0.119888     
   3.60628774078E+04;  0.994732     ; 0.11937      
   3.62312447078E+04;  0.994936     ; 0.11868      
   3.64003980667E+04;  0.993929     ; 0.118147     
   3.65703411545E+04;  0.994945     ; 0.117461     
   3.67410776581E+04;  0.995145     ; 0.116989     
   3.69126112819E+04;  0.995329     ; 0.116125     
   3.70849457472E+04;  0.99544      ; 0.115579     
   3.72580847931E+04;  0.995545     ; 0.114848     
   3.74320321758E+04;  0.995743     ; 0.11442      
   3.76067916693E+04;  0.994824     ; 0.113691     
   3.77823670651E+04;  0.995843     ; 0.113155     
   3.79587621724E+04;  0.995902     ; 0.112412     
   3.81359808182E+04;  0.996359     ; 0.111682     
   3.83140268474E+04;  0.996152     ; 0.111164     
   3.84929041228E+04;  0.996324     ; 0.110553     
   3.86726165251E+04;  0.995361     ; 0.109664     
   3.88531679535E+04;  0.996623     ; 0.109474     
   3.90345623251E+04;  0.996533     ; 0.108684     
   3.92168035753E+04;  0.996681     ; 0.108179     
   3.93998956580E+04;  0.996911     ; 0.107443     
   3.95838425455E+04;  0.996943     ; 0.106991     
   3.97686482285E+04;  0.997047     ; 0.106476     
   3.99543167167E+04;  0.997112     ; 0.105685     
   4.01408520381E+04;  0.997365     ; 0.105266     
   4.03282582398E+04;  0.99642      ; 0.104555     
   4.05165393876E+04;  0.996855     ; 0.1039       
   4.07056995665E+04;  0.997799     ; 0.10338      
   4.08957428804E+04;  0.997597     ; 0.103014     
   4.10866734523E+04;  0.997699     ; 0.10241      
   4.12784954247E+04;  0.997721     ; 0.101873     
   4.14712129592E+04;  0.998032     ; 0.100952     
   4.16648302370E+04;  0.998182     ; 0.100563     
   4.18593514587E+04;  0.998009     ; 0.100018     
   4.20547808446E+04;  0.998264     ; 0.0994632    
   4.22511226346E+04;  0.998338     ; 0.0988534    
   4.24483810885E+04;  0.998554     ; 0.0983636    
   4.26465604859E+04;  0.998393     ; 0.0976793    
   4.28456651264E+04;  0.998815     ; 0.0969436    
   4.30456993298E+04;  0.998627     ; 0.0966121    
   4.32466674358E+04;  0.99767      ; 0.0960034    
   4.34485738047E+04;  0.99893      ; 0.0955455    
   4.36514228170E+04;  0.998976     ; 0.0950255    
   4.38552188734E+04;  0.999182     ; 0.0944474    
   4.40599663956E+04;  0.999073     ; 0.0936512    
   4.42656698256E+04;  0.999357     ; 0.0932938    
   4.44723336264E+04;  0.999348     ; 0.0925812    
   4.46799622815E+04;  0.999487     ; 0.0922181    
   4.48885602957E+04;  0.999347     ; 0.0917089    
   4.50981321946E+04;  0.999694     ; 0.0912547    
   4.53086825250E+04;  0.999573     ; 0.0905152    
   4.55202158548E+04;  0.999602     ; 0.0900347    
   4.57327367735E+04;  0.999879     ; 0.0893912    
   4.59462498919E+04;  0.999832     ; 0.0891165    
   4.61607598421E+04;  0.998739     ; 0.0883063    
   4.63762712782E+04;  0.998794     ; 0.0879584    
   4.65927888758E+04;  0.999089     ; 0.0871899    
   4.68103173324E+04;  1.00021      ; 0.0867329    
   4.70288613674E+04;  1.00012      ; 0.0862519    
   4.72484257222E+04;  1.0004       ; 0.0859367    
   4.74690151604E+04;  1.00031      ; 0.0854113    
   4.76906344678E+04;  1.00034      ; 0.0848468    
   4.79132884527E+04;  1.00052      ; 0.0843642    
   4.81369819455E+04;  1.0006       ; 0.0835847    
   4.83617197996E+04;  1.00071      ; 0.083044     
   4.85875068907E+04;  1.00059      ; 0.0825596    
   4.88143481173E+04;  1.00095      ; 0.0821032    
   4.90422484011E+04;  1.00104      ; 0.0816507    
   4.92712126863E+04;  1.00111      ; 0.0811934    
   4.95012459405E+04;  1.00014      ; 0.0803213    
   4.97323531545E+04;  1.00006      ; 0.0799688    
   4.99645393422E+04;  1.00026      ; 0.0796182    
   5.01978095410E+04;  1.00114      ; 0.0795677    
   5.04321688120E+04;  1.00028      ; 0.078732     
   5.06676222396E+04;  1.00098      ; 0.0782679    
   5.09041749322E+04;  1.00133      ; 0.0775819    
   5.11418320219E+04;  1.00147      ; 0.0772444    
   5.13805986649E+04;  1.00164      ; 0.0766072    
   5.16204800412E+04;  1.0012       ; 0.0761928    
   5.18614813554E+04;  1.00194      ; 0.0760388    
   5.21036078361E+04;  1.00072      ; 0.0749821    
   5.23468647363E+04;  1.00146      ; 0.0748746    
   5.25912573337E+04;  1.00137      ; 0.074601     
   5.28367909305E+04;  1.00156      ; 0.0739955    
   5.30834708537E+04;  1.00221      ; 0.073112     
   5.33313024551E+04;  1.00213      ; 0.0727565    
   5.35802911117E+04;  1.00207      ; 0.0724306    
   5.38304422254E+04;  1.00176      ; 0.0720864    
   5.40817612234E+04;  1.00224      ; 0.0721268    
   5.43342535582E+04;  1.00187      ; 0.0709369    
   5.45879247078E+04;  1.00221      ; 0.0710218    
   5.48427801757E+04;  1.00211      ; 0.0703333    
   5.50988254911E+04;  1.00193      ; 0.0696159    
   5.53560662092E+04;  1.0022       ; 0.0695373    
   5.56145079109E+04;  1.00199      ; 0.0691245    
   5.58741562033E+04;  1.00236      ; 0.0687792    
   5.61350167196E+04;  1.00226      ; 0.0677823    
   5.63970951193E+04;  1.00258      ; 0.0675426    
   5.66603970884E+04;  1.00219      ; 0.0671582    
   5.69249283393E+04;  1.00297      ; 0.0664461    
   5.71906946113E+04;  1.00243      ; 0.0663615    
   5.74577016703E+04;  1.00241      ; 0.0660411    
   5.77259553092E+04;  1.00254      ; 0.06537      
   5.79954613480E+04;  1.00279      ; 0.0652513    
   5.82662256336E+04;  1.00294      ; 0.0641534    
   5.85382540405E+04;  1.00271      ; 0.0637297    
   5.88115524706E+04;  1.00338      ; 0.0632293    
   5.90861268531E+04;  1.00344      ; 0.0629406    
   5.93619831452E+04;  1.00201      ; 0.0632297    
   5.96391273318E+04;  1.00303      ; 0.0624072    
   5.99175654256E+04;  1.00292      ; 0.061515     
   6.01973034675E+04;  1.00271      ; 0.0615119    
   6.04783475267E+04;  1.00326      ; 0.0608699    
   6.07607037005E+04;  1.00297      ; 0.0603029    
   6.10443781148E+04;  1.00332      ; 0.0602296    
   6.13293769242E+04;  1.00359      ; 0.059624     
   6.16157063117E+04;  1.00298      ; 0.0592214    
   6.19033724897E+04;  1.00316      ; 0.0585529    
   6.21923816990E+04;  1.00364      ; 0.0584596    
   6.24827402100E+04;  1.00331      ; 0.0579054    
   6.27744543222E+04;  1.00286      ; 0.0573001    
   6.30675303644E+04;  1.00378      ; 0.0567723    
   6.33619746952E+04;  1.00357      ; 0.0563394    
   6.36577937027E+04;  1.00373      ; 0.0558968    
   6.39549938048E+04;  1.00367      ; 0.0557187    
   6.42535814495E+04;  1.00369      ; 0.0552951    
   6.45535631149E+04;  1.00383      ; 0.0548648    
   6.48549453092E+04;  1.00386      ; 0.0542195    
   6.51577345711E+04;  1.00279      ; 0.0529903    
   6.54619374698E+04;  1.00404      ; 0.0534015    
   6.57675606052E+04;  1.00355      ; 0.0531942    
   6.60746106079E+04;  1.00387      ; 0.0525145    
   6.63830941396E+04;  1.00387      ; 0.051959     
   6.66930178930E+04;  1.00418      ; 0.0519938    
   6.70043885922E+04;  1.00403      ; 0.0513079    
   6.73172129924E+04;  1.00329      ; 0.0506767    
   6.76314978806E+04;  1.00413      ; 0.0499389    
   6.79472500754E+04;  1.00383      ; 0.0503547    
   6.82644764272E+04;  1.00441      ; 0.0494003    
   6.85831838185E+04;  1.00431      ; 0.0494554    
   6.89033791638E+04;  1.00413      ; 0.0487276    
   6.92250694099E+04;  1.00422      ; 0.0488489    
   6.95482615362E+04;  1.00334      ; 0.0481724    
   6.98729625544E+04;  1.00427      ; 0.0474434    
   7.01991795091E+04;  1.00393      ; 0.0472243    
   7.05269194779E+04;  1.00458      ; 0.046401     
   7.08561895712E+04;  1.00397      ; 0.0468282    
   7.11869969328E+04;  1.00464      ; 0.0460978    
   7.15193487397E+04;  1.00475      ; 0.0462463    
   7.18532522024E+04;  1.00478      ; 0.045131     
   7.21887145654E+04;  1.00492      ; 0.0445613    
   7.25257431065E+04;  1.00422      ; 0.0449734    
   7.28643451378E+04;  1.00506      ; 0.0438395    
   7.32045280056E+04;  1.00482      ; 0.0443047    
   7.35462990902E+04;  1.00435      ; 0.0431685    
   7.38896658067E+04;  1.00393      ; 0.0427224    
   7.42346356045E+04;  1.00465      ; 0.0422751    
   7.45812159681E+04;  1.00431      ; 0.0424657    
   7.49294144166E+04;  1.00405      ; 0.0421596    
   7.52792385045E+04;  1.00483      ; 0.0408833    
   7.56306958213E+04;  1.00461      ; 0.040875     
   7.59837939923E+04;  1.00466      ; 0.0405729    
   7.63385406780E+04;  1.00451      ; 0.0406685    
   7.66949435749E+04;  1.00468      ; 0.0403326    
   7.70530104154E+04;  1.00497      ; 0.0389438    
   7.74127489679E+04;  1.00445      ; 0.0392153    
   7.77741670373E+04;  1.00492      ; 0.0386136    
   7.81372724647E+04;  1.00495      ; 0.0382866    
   7.85020731278E+04;  1.00493      ; 0.0383125    
   7.88685769413E+04;  1.0046       ; 0.0375148    
   7.92367918567E+04;  1.00501      ; 0.037082     
   7.96067258626E+04;  1.00497      ; 0.0370793    
   7.99783869850E+04;  1.00488      ; 0.0366752    
   8.03517832873E+04;  1.00517      ; 0.0362763    
   8.07269228706E+04;  1.00523      ; 0.0360826    
   8.11038138737E+04;  1.00509      ; 0.0356733    
   8.14824644734E+04;  1.00481      ; 0.0349215    
   8.18628828850E+04;  1.00509      ; 0.0345249    
   8.22450773618E+04;  1.0052       ; 0.0340217    
   8.26290561956E+04;  1.00541      ; 0.0340717    
   8.30148277173E+04;  1.00514      ; 0.0334781    
   8.34024002962E+04;  1.00519      ; 0.0333052    
   8.37917823411E+04;  1.0047       ; 0.0330742    
   8.41829822999E+04;  1.00512      ; 0.0325387    
   8.45760086598E+04;  1.0051       ; 0.0321688    
   8.49708699478E+04;  1.00546      ; 0.0317139    
   8.53675747306E+04;  1.0051       ; 0.0316246    
   8.57661316150E+04;  1.00492      ; 0.0309189    
   8.61665492480E+04;  1.00456      ; 0.0306554    
   8.65688363169E+04;  1.00454      ; 0.0304866    
   8.69730015494E+04;  1.00455      ; 0.0301802    
   8.73790537143E+04;  1.00465      ; 0.0298846    
   8.77870016210E+04;  1.00471      ; 0.0293417    
   8.81968541203E+04;  1.00465      ; 0.029135     
   8.86086201041E+04;  1.00485      ; 0.0285968    
   8.90223085060E+04;  1.00458      ; 0.0283312    
   8.94379283012E+04;  1.00446      ; 0.0276596    
   8.98554885068E+04;  1.00477      ; 0.0280145    
   9.02749981820E+04;  1.00502      ; 0.0272298    
   9.06964664284E+04;  1.00481      ; 0.0271692    
   9.11199023900E+04;  1.00492      ; 0.0267031    
   9.15453152534E+04;  1.00452      ; 0.0260583    
   9.19727142482E+04;  1.00491      ; 0.0261828    
   9.24021086472E+04;  1.00534      ; 0.025352     
   9.28335077663E+04;  1.00546      ; 0.025019     
   9.32669209650E+04;  1.00511      ; 0.0248697    
   9.37023576464E+04;  1.00471      ; 0.0244373    
   9.41398272577E+04;  1.0049       ; 0.0242376    
   9.45793392899E+04;  1.00479      ; 0.0240865    
   9.50209032786E+04;  1.00475      ; 0.023603     
   9.54645288037E+04;  1.00474      ; 0.0229291    
   9.59102254900E+04;  1.00507      ; 0.0229125    
   9.63580030071E+04;  1.00543      ; 0.0221179    
   9.68078710699E+04;  1.00534      ; 0.0218972    
   9.72598394386E+04;  1.00575      ; 0.0217856    
   9.77139179187E+04;  1.0056       ; 0.021532     
   9.81701163619E+04;  1.00605      ; 0.0213903    
   9.86284446657E+04;  1.00546      ; 0.0204877    
   9.90889127738E+04;  1.00512      ; 0.0209224    
   9.95515306762E+04;  1.00506      ; 0.019783     
   1.00016308410E+05;  1.00506      ; 0.0199582    
   1.00483256058E+05;  1.00472      ; 0.0194955    
   1.00952383752E+05;  1.00525      ; 0.0194342    
   1.01423701670E+05;  1.00554      ; 0.0189276    
   1.01897220036E+05;  1.00464      ; 0.0184017    
   1.02372949125E+05;  1.00514      ; 0.0184216    
   1.02850899258E+05;  1.0049       ; 0.0175705    
   1.03331080803E+05;  1.00529      ; 0.0175549    
   1.03813504180E+05;  1.00465      ; 0.0171366    
   1.04298179853E+05;  1.0049       ; 0.0167705    
   1.04785118340E+05;  1.00488      ; 0.016597     
   1.05274330203E+05;  1.0048       ; 0.016025     
   1.05765826057E+05;  1.00494      ; 0.0156779    
   1.06259616565E+05;  1.0051       ; 0.0156008    
   1.06755712441E+05;  1.00468      ; 0.0152105    
   1.07254124447E+05;  1.00488      ; 0.0148547    
   1.07754863396E+05;  1.00508      ; 0.0145976    
   1.08257940153E+05;  1.00506      ; 0.0144186    
   1.08763365632E+05;  1.00513      ; 0.0140459    
   1.09271150798E+05;  1.00499      ; 0.0135673    
   1.09781306669E+05;  1.00493      ; 0.0133259    
   1.10293844312E+05;  1.00519      ; 0.013077     
   1.10808774848E+05;  1.00475      ; 0.0127322    
   1.11326109447E+05;  1.00476      ; 0.0122544    
   1.11845859334E+05;  1.00414      ; 0.0118182    
   1.12368035786E+05;  1.00508      ; 0.0118111    
   1.12892650130E+05;  1.00509      ; 0.0110688    
   1.13419713749E+05;  1.00512      ; 0.0110515    
   1.13949238079E+05;  1.00553      ; 0.0106541    
   1.14481234606E+05;  1.00608      ; 0.0104418    
   1.15015714874E+05;  1.00549      ; 0.0100275    
   1.15552690478E+05;  1.00473      ; 0.0089933    
   1.16092173067E+05;  1.0055       ; 0.00911981   
   1.16634174348E+05;  1.00537      ; 0.00910856   
   1.17178706078E+05;  1.00519      ; 0.00882778   
   1.17725780071E+05;  1.00514      ; 0.00829381   
   1.18275408197E+05;  1.00487      ; 0.00777733   
   1.18827602380E+05;  1.00518      ; 0.00806363   
   1.19382374601E+05;  1.00466      ; 0.00747149   
   1.19939736895E+05;  1.00595      ; 0.00716354   
   1.20499701355E+05;  1.00568      ; 0.00651893   
   1.21062280129E+05;  1.00521      ; 0.00657586   
   1.21627485423E+05;  1.00506      ; 0.00615983   
   1.22195329500E+05;  1.00518      ; 0.00582139   
   1.22765824679E+05;  1.00515      ; 0.00558867   
   1.23338983337E+05;  1.00399      ; 0.00504321   
   1.23914817910E+05;  1.00513      ; 0.00475775   
   1.24493340890E+05;  1.0051       ; 0.00463951   
   1.25074564830E+05;  1.00583      ; 0.00396869   
   1.25658502338E+05;  1.0055       ; 0.00413917   
   1.26245166084E+05;  1.00498      ; 0.00360997   
   1.26834568796E+05;  1.00513      ; 0.00323405   
   1.27426723262E+05;  1.00496      ; 0.00319175   
   1.28021642328E+05;  1.00499      ; 0.00274931   
   1.28619338901E+05;  1.00519      ; 0.00252198   
   1.29219825950E+05;  1.00495      ; 0.00214535   
   1.29823116501E+05;  1.00496      ; 0.00180351   
   1.30429223644E+05;  1.0051       ; 0.00155855   
   1.31038160529E+05;  1.00554      ; 0.00131459   
   1.31649940367E+05;  1.00455      ; 0.000902362  
   1.32264576430E+05;  1.00501      ; 0.000631981  
   1.32882082054E+05;  1.00517      ; 7.86111E-05  
   1.33502470636E+05;  1.00543      ; 1.63168E-05  
   1.34125755635E+05;  1.00509      ;-0.000766501  
   1.34751950575E+05;  1.00485      ;-0.001411     
   1.35381069040E+05;  1.00462      ;-0.00158755   
   1.36013124680E+05;  1.00403      ;-0.00185651   
   1.36648131208E+05;  1.00398      ;-0.0012053    
   1.37286102400E+05;  1.004        ;-0.00165491   
   1.37927052099E+05;  1.00444      ;-0.00157804   
   1.38570994208E+05;  1.00433      ;-0.00212578   
   1.39217942700E+05;  1.00489      ;-0.00222792   
   1.39867911610E+05;  1.00426      ;-0.00221599   
   1.40520915040E+05;  1.00441      ;-0.00229852   
   1.41176967156E+05;  1.0048       ;-0.00340687   
   1.41836082194E+05;  1.0049       ;-0.0027892    
   1.42498274451E+05;  1.00517      ;-0.00305833   
   1.43163558295E+05;  1.00465      ;-0.00466584   
   1.43831948161E+05;  1.00449      ;-0.00396475   
   1.44503458548E+05;  1.00448      ;-0.0042491    
   1.45178104025E+05;  1.00541      ;-0.00617242   
   1.45855899230E+05;  1.00443      ;-0.00677583   
   1.46536858868E+05;  1.00542      ;-0.00703985   
   1.47220997713E+05;  1.00412      ;-0.00586551   
   1.47908330606E+05;  1.00485      ;-0.00611444   
   1.48598872462E+05;  1.00519      ;-0.00781386   
   1.49292638260E+05;  1.00514      ;-0.00663878   
   1.49989643053E+05;  1.00469      ;-0.00752598   
   1.50689901963E+05;  1.00571      ;-0.00778786   
   1.51393430183E+05;  1.00555      ;-0.00846579   
   1.52100242975E+05;  1.00576      ;-0.00815115   
   1.52810355675E+05;  1.00502      ;-0.00942017   
   1.53523783688E+05;  1.00476      ;-0.00950892   
   1.54240542494E+05;  1.0056       ;-0.00896828   
   1.54960647643E+05;  1.00624      ;-0.00973816   
   1.55684114757E+05;  1.00609      ;-0.00969735   
   1.56410959533E+05;  1.00534      ;-0.0103277    
   1.57141197740E+05;  1.00508      ;-0.010769     
   1.57874845221E+05;  1.00517      ;-0.0107308    
   1.58611917894E+05;  1.00537      ;-0.0113497    
   1.59352431749E+05;  1.00529      ;-0.0116153    
   1.60096402852E+05;  1.00545      ;-0.0118229    
   1.60843847344E+05;  1.00506      ;-0.0122243    
   1.61594781441E+05;  1.00507      ;-0.0125256    
   1.62349221436E+05;  1.00492      ;-0.0125871    
   1.63107183696E+05;  1.00497      ;-0.0131726    
   1.63868684666E+05;  1.0052       ;-0.0133386    
   1.64633740867E+05;  1.00517      ;-0.0134674    
   1.65402368898E+05;  1.00496      ;-0.0138427    
   1.66174585433E+05;  1.0049       ;-0.0143698    
   1.66950407228E+05;  1.00512      ;-0.0146043    
   1.67729851114E+05;  1.0051       ;-0.01481      
   1.68512934001E+05;  1.00524      ;-0.0151299    
   1.69299672879E+05;  1.00537      ;-0.0154906    
   1.70090084817E+05;  1.0053       ;-0.0156436    
   1.70884186963E+05;  1.0052       ;-0.0161327    
   1.71681996545E+05;  1.00519      ;-0.0165473    
   1.72483530873E+05;  1.00507      ;-0.0172075    
   1.73288807337E+05;  1.00512      ;-0.0170856    
   1.74097843407E+05;  1.00513      ;-0.0174643    
   1.74910656636E+05;  1.00523      ;-0.0178804    
   1.75727264658E+05;  1.005        ;-0.0184256    
   1.76547685191E+05;  1.00523      ;-0.0182799    
   1.77371936033E+05;  1.0052       ;-0.0186378    
   1.78200035067E+05;  1.00504      ;-0.0190509    
   1.79032000260E+05;  1.00531      ;-0.0191234    
   1.79867849662E+05;  1.00525      ;-0.0197144    
   1.80707601406E+05;  1.00543      ;-0.0199765    
   1.81551273712E+05;  1.00486      ;-0.0204734    
   1.82398884883E+05;  1.00503      ;-0.0205643    
   1.83250453310E+05;  1.00477      ;-0.0209888    
   1.84105997466E+05;  1.00505      ;-0.0213972    
   1.84965535915E+05;  1.00537      ;-0.0214306    
   1.85829087304E+05;  1.0052       ;-0.0217541    
   1.86696670368E+05;  1.00521      ;-0.0225092    
   1.87568303931E+05;  1.00475      ;-0.0224503    
   1.88444006902E+05;  1.00509      ;-0.0228916    
   1.89323798281E+05;  1.00477      ;-0.0233635    
   1.90207697155E+05;  1.00481      ;-0.0234815    
   1.91095722701E+05;  1.00505      ;-0.0240011    
   1.91987894186E+05;  1.00494      ;-0.0239141    
   1.92884230965E+05;  1.0046       ;-0.0246731    
   1.93784752485E+05;  1.00483      ;-0.0248118    
   1.94689478283E+05;  1.005        ;-0.0257177    
   1.95598427988E+05;  1.00503      ;-0.0250428    
   1.96511621321E+05;  1.00519      ;-0.0261294    
   1.97429078093E+05;  1.00489      ;-0.0257555    
   1.98350818209E+05;  1.00479      ;-0.0268088    
   1.99276861668E+05;  1.00496      ;-0.0266605    
   2.00207228559E+05;  1.00503      ;-0.0274093    
   2.01141939068E+05;  1.00555      ;-0.0275242    
   2.02081013475E+05;  1.00526      ;-0.0278478    
   2.03024472152E+05;  1.00472      ;-0.0279988    
   2.03972335569E+05;  1.00511      ;-0.0284992    
   2.04924624290E+05;  1.00521      ;-0.0288782    
   2.05881358976E+05;  1.00508      ;-0.0291082    
   2.06842560384E+05;  1.00487      ;-0.029675     
   2.07808249367E+05;  1.00507      ;-0.0299782    
   2.08778446877E+05;  1.00511      ;-0.0301793    
   2.09753173963E+05;  1.00492      ;-0.0307854    
   2.10732451772E+05;  1.00503      ;-0.0306627    
   2.11716301549E+05;  1.0048       ;-0.0310691    
   2.12704744642E+05;  1.0051       ;-0.0318543    
   2.13697802493E+05;  1.00487      ;-0.0319673    
   2.14695496648E+05;  1.00478      ;-0.0323347    
   2.15697848754E+05;  1.00508      ;-0.0326173    
   2.16704880555E+05;  1.00493      ;-0.0329883    
   2.17716613901E+05;  1.0051       ;-0.0328741    
   2.18733070742E+05;  1.00508      ;-0.0335854    
   2.19754273131E+05;  1.00534      ;-0.0339828    
   2.20780243222E+05;  1.00586      ;-0.0341427    
   2.21811003275E+05;  1.00508      ;-0.0346437    
   2.22846575654E+05;  1.00508      ;-0.0349725    
   2.23886982825E+05;  1.00512      ;-0.0356304    
   2.24932247360E+05;  1.00505      ;-0.0358815    
   2.25982391938E+05;  1.00518      ;-0.0359708    
   2.27037439341E+05;  1.00503      ;-0.0365735    
   2.28097412461E+05;  1.00483      ;-0.036686     
   2.29162334293E+05;  1.00483      ;-0.0371028    
   2.30232227941E+05;  1.00509      ;-0.0373318    
   2.31307116618E+05;  1.00496      ;-0.0376944    
   2.32387023644E+05;  1.00508      ;-0.037948     
   2.33471972449E+05;  1.005        ;-0.0383724    
   2.34561986570E+05;  1.00483      ;-0.0392749    
   2.35657089656E+05;  1.00486      ;-0.0391776    
   2.36757305467E+05;  1.00494      ;-0.0397501    
   2.37862657872E+05;  1.00512      ;-0.0401716    
   2.38973170853E+05;  1.00498      ;-0.0403983    
   2.40088868502E+05;  1.00503      ;-0.0405543    
   2.41209775025E+05;  1.00482      ;-0.0411693    
   2.42335914742E+05;  1.005        ;-0.0415771    
   2.43467312084E+05;  1.00461      ;-0.0418125    
   2.44603991599E+05;  1.00485      ;-0.0421718    
   2.45745977946E+05;  1.00489      ;-0.0425587    
   2.46893295901E+05;  1.00481      ;-0.0429606    
   2.48045970358E+05;  1.00449      ;-0.0433827    
   2.49204026323E+05;  1.00479      ;-0.0437588    
   2.50367488922E+05;  1.00469      ;-0.0442493    
   2.51536383396E+05;  1.00475      ;-0.0445501    
   2.52710735105E+05;  1.00483      ;-0.0449686    
   2.53890569527E+05;  1.00477      ;-0.0452536    
   2.55075912261E+05;  1.00487      ;-0.0458849    
   2.56266789022E+05;  1.00455      ;-0.0460113    
   2.57463225647E+05;  1.00471      ;-0.0462258    
   2.58665248094E+05;  1.00461      ;-0.0467       
   2.59872882442E+05;  1.00418      ;-0.0471731    
   2.61086154890E+05;  1.00462      ;-0.0475218    
   2.62305091761E+05;  1.00454      ;-0.0479117    
   2.63529719502E+05;  1.00459      ;-0.0483062    
   2.64760064680E+05;  1.00457      ;-0.048873     
   2.65996153990E+05;  1.00468      ;-0.0491105    
   2.67238014248E+05;  1.00465      ;-0.0496529    
   2.68485672398E+05;  1.00464      ;-0.049733     
   2.69739155508E+05;  1.00465      ;-0.0506684    
   2.70998490774E+05;  1.00425      ;-0.0504749    
   2.72263705518E+05;  1.00432      ;-0.0507764    
   2.73534827189E+05;  1.00418      ;-0.051362     
   2.74811883365E+05;  1.00403      ;-0.0519232    
   2.76094901752E+05;  1.00456      ;-0.0522732    
   2.77383910186E+05;  1.00427      ;-0.052403     
   2.78678936634E+05;  1.00429      ;-0.0531486    
   2.79980009191E+05;  1.0039       ;-0.0532448    
   2.81287156085E+05;  1.00428      ;-0.0539532    
   2.82600405676E+05;  1.00444      ;-0.0538285    
   2.83919786454E+05;  1.00419      ;-0.054685     
   2.85245327046E+05;  1.00393      ;-0.0548254    
   2.86577056209E+05;  1.00414      ;-0.0554592    
   2.87915002836E+05;  1.00402      ;-0.0558467    
   2.89259195955E+05;  1.00395      ;-0.0563561    
   2.90609664728E+05;  1.00387      ;-0.0565537    
   2.91966438456E+05;  1.00423      ;-0.0568582    
   2.93329546573E+05;  1.00355      ;-0.0571908    
   2.94699018654E+05;  1.00429      ;-0.0576936    
   2.96074884410E+05;  1.00366      ;-0.05811      
   2.97457173691E+05;  1.00395      ;-0.0584142    
   2.98845916487E+05;  1.0037       ;-0.0590784    
   3.00241142927E+05;  1.00348      ;-0.0596488    
   3.01642883282E+05;  1.00362      ;-0.0597244    
   3.03051167963E+05;  1.00365      ;-0.0601991    
   3.04466027525E+05;  1.00355      ;-0.0605567    
   3.05887492662E+05;  1.0036       ;-0.0610035    
   3.07315594215E+05;  1.00376      ;-0.0616104    
   3.08750363168E+05;  1.00347      ;-0.0620334    
   3.10191830648E+05;  1.00351      ;-0.0623251    
   3.11640027929E+05;  1.00317      ;-0.0627129    
   3.13094986430E+05;  1.00336      ;-0.06327      
   3.14556737718E+05;  1.00344      ;-0.0635218    
   3.16025313507E+05;  1.00316      ;-0.0637844    
   3.17500745657E+05;  1.00322      ;-0.0644933    
   3.18983066180E+05;  1.00326      ;-0.0646812    
   3.20472307235E+05;  1.00302      ;-0.0652447    
   3.21968501132E+05;  1.00314      ;-0.0656011    
   3.23471680332E+05;  1.00302      ;-0.0658079    
   3.24981877448E+05;  1.00334      ;-0.0664419    
   3.26499125243E+05;  1.0031       ;-0.0667725    
   3.28023456637E+05;  1.00285      ;-0.0673275    
   3.29554904699E+05;  1.00267      ;-0.0676247    
   3.31093502656E+05;  1.00273      ;-0.0683409    
   3.32639283888E+05;  1.00278      ;-0.0685214    
   3.34192281933E+05;  1.00252      ;-0.0689567    
   3.35752530483E+05;  1.00277      ;-0.0694169    
   3.37320063389E+05;  1.00275      ;-0.0698393    
   3.38894914659E+05;  1.00233      ;-0.0701038    
   3.40477118462E+05;  1.00292      ;-0.0705972    
   3.42066709123E+05;  1.00236      ;-0.0711516    
   3.43663721130E+05;  1.00255      ;-0.0717311    
   3.45268189131E+05;  1.00243      ;-0.0717621    
   3.46880147937E+05;  1.00242      ;-0.0725342    
   3.48499632518E+05;  1.00226      ;-0.0729501    
   3.50126678012E+05;  1.0022       ;-0.0731964    
   3.51761319717E+05;  1.00239      ;-0.0735601    
   3.53403593099E+05;  1.00218      ;-0.0738992    
   3.55053533788E+05;  1.00222      ;-0.0746912    
   3.56711177579E+05;  1.00182      ;-0.0749443    
   3.58376560437E+05;  1.00151      ;-0.0752933    
   3.60049718493E+05;  1.0022       ;-0.0757794    
   3.61730688047E+05;  1.00201      ;-0.0762219    
   3.63419505570E+05;  1.00192      ;-0.0765868    
   3.65116207700E+05;  1.00194      ;-0.0769244    
   3.66820831249E+05;  1.00156      ;-0.0775937    
   3.68533413199E+05;  1.00171      ;-0.0782547    
   3.70253990707E+05;  1.00143      ;-0.0782835    
   3.71982601101E+05;  1.00141      ;-0.0791425    
   3.73719281885E+05;  1.0014       ;-0.079424     
   3.75464070736E+05;  1.00127      ;-0.0803835    
   3.77217005509E+05;  1.00111      ;-0.0804732    
   3.78978124235E+05;  1.00115      ;-0.0807696    
   3.80747465123E+05;  1.00169      ;-0.08118      
   3.82525066560E+05;  1.0015       ;-0.08176      
   3.84310967111E+05;  1.00127      ;-0.0820025    
   3.86105205523E+05;  1.0013       ;-0.0826173    
   3.87907820723E+05;  1.00096      ;-0.0829449    
   3.89718851819E+05;  1.00099      ;-0.0839345    
   3.91538338104E+05;  1.00074      ;-0.084146     
   3.93366319052E+05;  1.00113      ;-0.0845882    
   3.95202834322E+05;  1.00077      ;-0.0848736    
   3.97047923759E+05;  1.00082      ;-0.0855808    
   3.98901627392E+05;  1.0007       ;-0.0858572    
   4.00763985440E+05;  1.00043      ;-0.0865111    
   4.02635038307E+05;  1.00047      ;-0.086753     
   4.04514826587E+05;  1.00071      ;-0.0871715    
   4.06403391062E+05;  1.00048      ;-0.0877064    
   4.08300772707E+05;  1.00056      ;-0.0882431    
   4.10207012686E+05;  1.00034      ;-0.0890648    
   4.12122152357E+05;  1.00029      ;-0.0894831    
   4.14046233269E+05;  0.999974     ;-0.090069     
   4.15979297167E+05;  1.00023      ;-0.0904744    
   4.17921385989E+05;  1.00018      ;-0.09085      
   4.19872541871E+05;  1.00017      ;-0.091276     
   4.21832807144E+05;  0.999944     ;-0.0918379    
   4.23802224337E+05;  0.999981     ;-0.0921977    
   4.25780836177E+05;  1.00019      ;-0.0923629    
   4.27768685592E+05;  0.999933     ;-0.0930123    
   4.29765815710E+05;  0.999696     ;-0.0937002    
   4.31772269860E+05;  0.999907     ;-0.0940884    
   4.33788091572E+05;  0.999585     ;-0.0947257    
   4.35813324582E+05;  0.999862     ;-0.0949751    
   4.37848012827E+05;  0.999556     ;-0.0953327    
   4.39892200452E+05;  0.999182     ;-0.0963618    
   4.41945931807E+05;  0.999669     ;-0.0963191    
   4.44009251449E+05;  0.99925      ;-0.0972104    
   4.46082204141E+05;  0.999391     ;-0.0976603    
   4.48164834860E+05;  0.999286     ;-0.0980867    
   4.50257188788E+05;  0.999452     ;-0.0984943    
   4.52359311320E+05;  0.999227     ;-0.0989115    
   4.54471248063E+05;  0.999187     ;-0.0995382    
   4.56593044838E+05;  0.999066     ;-0.100204     
   4.58724747677E+05;  0.998548     ;-0.100827     
   4.60866402829E+05;  0.998992     ;-0.101158     
   4.63018056759E+05;  0.999007     ;-0.101256     
   4.65179756148E+05;  0.998704     ;-0.102321     
   4.67351547896E+05;  0.9986       ;-0.102747     
   4.69533479120E+05;  0.998704     ;-0.10326      
   4.71725597160E+05;  0.998615     ;-0.103815     
   4.73927949575E+05;  0.998434     ;-0.104278     
   4.76140584145E+05;  0.998274     ;-0.104971     
   4.78363548876E+05;  0.998114     ;-0.105492     
   4.80596891996E+05;  0.998336     ;-0.105883     
   4.82840661958E+05;  0.998209     ;-0.106604     
   4.85094907443E+05;  0.998327     ;-0.106961     
   4.87359677358E+05;  0.998466     ;-0.107656     
   4.89635020839E+05;  0.997978     ;-0.108137     
   4.91920987250E+05;  0.997931     ;-0.108809     
   4.94217626187E+05;  0.997769     ;-0.109441     
   4.96524987477E+05;  0.997549     ;-0.109687     
   4.98843121179E+05;  0.997689     ;-0.110138     
   5.01172077587E+05;  0.997638     ;-0.11095      
   5.03511907229E+05;  0.997454     ;-0.111425     
   5.05862660869E+05;  0.997478     ;-0.111992     
   5.08224389508E+05;  0.997435     ;-0.112528     
   5.10597144385E+05;  0.997034     ;-0.112973     
   5.12980976978E+05;  0.997011     ;-0.113519     
   5.15375939007E+05;  0.997156     ;-0.114342     
   5.17782082431E+05;  0.997047     ;-0.114836     
   5.20199459453E+05;  0.996852     ;-0.115552     
   5.22628122520E+05;  0.997023     ;-0.116234     
   5.25068124323E+05;  0.997039     ;-0.11671      
   5.27519517799E+05;  0.996759     ;-0.117397     
   5.29982356133E+05;  0.99693      ;-0.117846     
   5.32456692757E+05;  0.996459     ;-0.118303     
   5.34942581354E+05;  0.996354     ;-0.11922      
   5.37440075856E+05;  0.996182     ;-0.119389     
   5.39949230449E+05;  0.996296     ;-0.120122     
   5.42470099570E+05;  0.996455     ;-0.120249     
   5.45002737910E+05;  0.995523     ;-0.121416     
   5.47547200417E+05;  0.996212     ;-0.122015     
   5.50103542295E+05;  0.995795     ;-0.122712     
   5.52671819005E+05;  0.99594      ;-0.123737     
   5.55252086267E+05;  0.995605     ;-0.123777     
   5.57844400061E+05;  0.995673     ;-0.124287     
   5.60448816631E+05;  0.995697     ;-0.125096     
   5.63065392479E+05;  0.995259     ;-0.125536     
   5.65694184374E+05;  0.995938     ;-0.126302     
   5.68335249350E+05;  0.995348     ;-0.126896     
   5.70988644705E+05;  0.99511      ;-0.127717     
   5.73654428008E+05;  0.994916     ;-0.127635     
   5.76332657093E+05;  0.994904     ;-0.128715     
   5.79023390067E+05;  0.99523      ;-0.12948      
   5.81726685306E+05;  0.994837     ;-0.130303     
   5.84442601461E+05;  0.994866     ;-0.131074     
   5.87171197454E+05;  0.994718     ;-0.131312     
   5.89912532485E+05;  0.994467     ;-0.131797     
   5.92666666028E+05;  0.994665     ;-0.132803     
   5.95433657835E+05;  0.994096     ;-0.133379     
   5.98213567940E+05;  0.994637     ;-0.133582     
   6.01006456652E+05;  0.994192     ;-0.134351     
   6.03812384566E+05;  0.994168     ;-0.135639     
   6.06631412558E+05;  0.99399      ;-0.135857     
   6.09463601789E+05;  0.993709     ;-0.136525     
   6.12309013704E+05;  0.994032     ;-0.137102     
   6.15167710037E+05;  0.993732     ;-0.137989     
   6.18039752809E+05;  0.99377      ;-0.138591     
   6.20925204330E+05;  0.993498     ;-0.139198     
   6.23824127202E+05;  0.993403     ;-0.140042     
   6.26736584319E+05;  0.9933       ;-0.140727     
   6.29662638868E+05;  0.992916     ;-0.14156      
   6.32602354333E+05;  0.993088     ;-0.141872     
   6.35555794491E+05;  0.992977     ;-0.142728     
   6.38523023420E+05;  0.992707     ;-0.143296     
   6.41504105496E+05;  0.992533     ;-0.144168     
   6.44499105394E+05;  0.992711     ;-0.144951     
   6.47508088094E+05;  0.992638     ;-0.145578     
   6.50531118876E+05;  0.992288     ;-0.146199     
   6.53568263328E+05;  0.992106     ;-0.147212     
   6.56619587343E+05;  0.992128     ;-0.148036     
   6.59685157119E+05;  0.991901     ;-0.148523     
   6.62765039168E+05;  0.992053     ;-0.149218     
   6.65859300308E+05;  0.991443     ;-0.149869     
   6.68968007672E+05;  0.991587     ;-0.150794     
   6.72091228705E+05;  0.991253     ;-0.151139     
   6.75229031167E+05;  0.99155      ;-0.152135     
   6.78381483135E+05;  0.990961     ;-0.152783     
   6.81548653003E+05;  0.991208     ;-0.153594     
   6.84730609485E+05;  0.990921     ;-0.154393     
   6.87927421615E+05;  0.990632     ;-0.15474      
   6.91139158750E+05;  0.990657     ;-0.155688     
   6.94365890570E+05;  0.990282     ;-0.156442     
   6.97607687083E+05;  0.990504     ;-0.157265     
   7.00864618619E+05;  0.990383     ;-0.158541     
   7.04136755841E+05;  0.990156     ;-0.159004     
   7.07424169739E+05;  0.990181     ;-0.159962     
   7.10726931637E+05;  0.989925     ;-0.160551     
   7.14045113188E+05;  0.989785     ;-0.161292     
   7.17378786384E+05;  0.989932     ;-0.161813     
   7.20728023550E+05;  0.989868     ;-0.162643     
   7.24092897350E+05;  0.98941      ;-0.163348     
   7.27473480788E+05;  0.989352     ;-0.164598     
   7.30869847206E+05;  0.988821     ;-0.165238     
   7.34282070291E+05;  0.989014     ;-0.165761     
   7.37710224074E+05;  0.988775     ;-0.16666      
   7.41154382930E+05;  0.988833     ;-0.167569     
   7.44614621583E+05;  0.98873      ;-0.168152     
   7.48091015104E+05;  0.988382     ;-0.169029     
   7.51583638916E+05;  0.988789     ;-0.169973     
   7.55092568793E+05;  0.988095     ;-0.170727     
   7.58617880864E+05;  0.987998     ;-0.171361     
   7.62159651613E+05;  0.987665     ;-0.172492     
   7.65717957881E+05;  0.987409     ;-0.173575     
   7.69292876866E+05;  0.987594     ;-0.174144     
   7.72884486130E+05;  0.987427     ;-0.174793     
   7.76492863594E+05;  0.987933     ;-0.173179     
   7.80118087545E+05;  0.987264     ;-0.176402     
   7.83760236633E+05;  0.986917     ;-0.177457     
   7.87419389878E+05;  0.987056     ;-0.178495     
   7.91095626666E+05;  0.986518     ;-0.179182     
   7.94789026757E+05;  0.986377     ;-0.180366     
   7.98499670281E+05;  0.986371     ;-0.180704     
   8.02227637742E+05;  0.986098     ;-0.180256     
   8.05973010021E+05;  0.985844     ;-0.182764     
   8.09735868376E+05;  0.985891     ;-0.183266     
   8.13516294445E+05;  0.985349     ;-0.184406     
   8.17314370245E+05;  0.985382     ;-0.184678     
   8.21130178180E+05;  0.985227     ;-0.186021     
   8.24963801035E+05;  0.985114     ;-0.186742     
   8.28815321983E+05;  0.984883     ;-0.187364     
   8.32684824584E+05;  0.984689     ;-0.18855      
   8.36572392791E+05;  0.984445     ;-0.189348     
   8.40478110946E+05;  0.983868     ;-0.190011     
   8.44402063787E+05;  0.984256     ;-0.191366     
   8.48344336445E+05;  0.983691     ;-0.192229     
   8.52305014451E+05;  0.983673     ;-0.19283      
   8.56284183734E+05;  0.983539     ;-0.193875     
   8.60281930626E+05;  0.983299     ;-0.194732     
   8.64298341858E+05;  0.982931     ;-0.196154     
   8.68333504570E+05;  0.982799     ;-0.196711     
   8.72387506307E+05;  0.982405     ;-0.197674     
   8.76460435023E+05;  0.982558     ;-0.198327     
   8.80552379083E+05;  0.982334     ;-0.199088     
   8.84663427264E+05;  0.982183     ;-0.200527     
   8.88793668757E+05;  0.981677     ;-0.201345     
   8.92943193172E+05;  0.981616     ;-0.202386     
   8.97112090533E+05;  0.981385     ;-0.203037     
   9.01300451289E+05;  0.981282     ;-0.203903     
   9.05508366308E+05;  0.981125     ;-0.205185     
   9.09735926883E+05;  0.981046     ;-0.205945     
   9.13983224734E+05;  0.980735     ;-0.206824     
   9.18250352008E+05;  0.980521     ;-0.207824     
   9.22537401284E+05;  0.980199     ;-0.208768     
   9.26844465572E+05;  0.980093     ;-0.209866     
   9.31171638315E+05;  0.980014     ;-0.210819     
   9.35519013396E+05;  0.979413     ;-0.211737     
   9.39886685132E+05;  0.979487     ;-0.212622     
   9.44274748283E+05;  0.978754     ;-0.213609     
   9.48683298050E+05;  0.978634     ;-0.213935     
   9.53112430081E+05;  0.978325     ;-0.216169     
   9.57562240467E+05;  0.978276     ;-0.216696     
   9.62032825750E+05;  0.977894     ;-0.218127     
   9.66524282922E+05;  0.977867     ;-0.218924     
   9.71036709427E+05;  0.977332     ;-0.220165     
   9.75570203167E+05;  0.977067     ;-0.224182     
   9.80124862497E+05;  0.976845     ;-0.221553     
   9.84700786234E+05;  0.97669      ;-0.222703     
   9.89298073655E+05;  0.976837     ;-0.224071     
   9.93916824501E+05;  0.976553     ;-0.224629     
   9.98557138979E+05;  0.976388     ;-0.224744     
   1.00321911776E+06;  0.976071     ;-0.227374     
   1.00790286200E+06;  0.975728     ;-0.228131     
   1.01260847330E+06;  0.975282     ;-0.229499     
   1.01733605376E+06;  0.975041     ;-0.230564     
   1.02208570595E+06;  0.974776     ;-0.23186      
   1.02685753291E+06;  0.974657     ;-0.232961     
   1.03165163817E+06;  0.97424      ;-0.233577     
   1.03646812574E+06;  0.974196     ;-0.2346       
   1.04130710012E+06;  0.974213     ;-0.23468      
   1.04616866629E+06;  0.973642     ;-0.236685     
   1.05105292973E+06;  0.973385     ;-0.238189     
   1.05595999641E+06;  0.972685     ;-0.238911     
   1.06088997278E+06;  0.972744     ;-0.24027      
   1.06584296581E+06;  0.972397     ;-0.241586     
   1.07081908295E+06;  0.97159      ;-0.24243      
   1.07581843216E+06;  0.972044     ;-0.243466     
   1.08084112191E+06;  0.971348     ;-0.244408     
   1.08588726117E+06;  0.971509     ;-0.245576     
   1.09095695941E+06;  0.970807     ;-0.246745     
   1.09605032663E+06;  0.970642     ;-0.247875     
   1.10116747333E+06;  0.970328     ;-0.248952     
   1.10630851053E+06;  0.969772     ;-0.250095     
   1.11147354977E+06;  0.970175     ;-0.249384     
   1.11666270311E+06;  0.969484     ;-0.252629     
   1.12187608312E+06;  0.968725     ;-0.253927     
   1.12711380292E+06;  0.968813     ;-0.255159     
   1.13237597614E+06;  0.968821     ;-0.256101     
   1.13766271695E+06;  0.968066     ;-0.257032     
   1.14297414004E+06;  0.967159     ;-0.258815     
   1.14831036066E+06;  0.967362     ;-0.25968      
   1.15367149457E+06;  0.966921     ;-0.260698     
   1.15905765809E+06;  0.966651     ;-0.262159     
   1.16446896807E+06;  0.965968     ;-0.263029     
   1.16990554191E+06;  0.965872     ;-0.264284     
   1.17536749757E+06;  0.965208     ;-0.265362     
   1.18085495355E+06;  0.965025     ;-0.266843     
   1.18636802889E+06;  0.964429     ;-0.267781     
   1.19190684321E+06;  0.964064     ;-0.269117     
   1.19747151667E+06;  0.963956     ;-0.270199     
   1.20306217002E+06;  0.963584     ;-0.27159      
   1.20867892452E+06;  0.963115     ;-0.272637     
   1.21432190206E+06;  0.963223     ;-0.273843     
   1.21999122505E+06;  0.96258      ;-0.274877     
   1.22568701649E+06;  0.962461     ;-0.276084     
   1.23140939996E+06;  0.961796     ;-0.277616     
   1.23715849961E+06;  0.961431     ;-0.27907      
   1.24293444017E+06;  0.961429     ;-0.280071     
   1.24873734695E+06;  0.960634     ;-0.281166     
   1.25456734585E+06;  0.96049      ;-0.282228     
   1.26042456335E+06;  0.959678     ;-0.283649     
   1.26630912653E+06;  0.959798     ;-0.285061     
   1.27222116306E+06;  0.959303     ;-0.286301     
   1.27816080120E+06;  0.958884     ;-0.287914     
   1.28412816982E+06;  0.958434     ;-0.288823     
   1.29012339839E+06;  0.95787      ;-0.290225     
   1.29614661697E+06;  0.957958     ;-0.291527     
   1.30219795624E+06;  0.956973     ;-0.293161     
   1.30827754749E+06;  0.957135     ;-0.294527     
   1.31438552262E+06;  0.956302     ;-0.295588     
   1.32052201414E+06;  0.955911     ;-0.297034     
   1.32668715520E+06;  0.955632     ;-0.29841      
   1.33288107954E+06;  0.955176     ;-0.299493     
   1.33910392155E+06;  0.954799     ;-0.300866     
   1.34535581624E+06;  0.954019     ;-0.302011     
   1.35163689924E+06;  0.954089     ;-0.303598     
   1.35794730683E+06;  0.953238     ;-0.30495      
   1.36428717592E+06;  0.952929     ;-0.306453     
   1.37065664404E+06;  0.95276      ;-0.307788     
   1.37705584940E+06;  0.951806     ;-0.308913     
   1.38348493083E+06;  0.951814     ;-0.310509     
   1.38994402780E+06;  0.951326     ;-0.311547     
   1.39643328046E+06;  0.950842     ;-0.313192     
   1.40295282959E+06;  0.950245     ;-0.314749     
   1.40950281664E+06;  0.94956      ;-0.316175     
   1.41608338371E+06;  0.949291     ;-0.317635     
   1.42269467357E+06;  0.948706     ;-0.318871     
   1.42933682967E+06;  0.948585     ;-0.320427     
   1.43600999609E+06;  0.947517     ;-0.321936     
   1.44271431763E+06;  0.94702      ;-0.323373     
   1.44944993974E+06;  0.946994     ;-0.324656     
   1.45621700855E+06;  0.945972     ;-0.326086     
   1.46301567087E+06;  0.945988     ;-0.327586     
   1.46984607422E+06;  0.945209     ;-0.328909     
   1.47670836676E+06;  0.944811     ;-0.330778     
   1.48360269740E+06;  0.944733     ;-0.332127     
   1.49052921570E+06;  0.94408      ;-0.33413      
   1.49748807195E+06;  0.94289      ;-0.334934     
   1.50447941711E+06;  0.942638     ;-0.336585     
   1.51150340287E+06;  0.942207     ;-0.338073     
   1.51856018161E+06;  0.941664     ;-0.339712     
   1.52564990645E+06;  0.940682     ;-0.341281     
   1.53277273119E+06;  0.940529     ;-0.342494     
   1.53992881038E+06;  0.940098     ;-0.344229     
   1.54711829925E+06;  0.939297     ;-0.345797     
   1.55434135380E+06;  0.938653     ;-0.346958     
   1.56159813074E+06;  0.938521     ;-0.348963     
   1.56888878750E+06;  0.937861     ;-0.350182     
   1.57621348226E+06;  0.937507     ;-0.351846     
   1.58357237393E+06;  0.936812     ;-0.35371      
   1.59096562217E+06;  0.93581      ;-0.354644     
   1.59839338738E+06;  0.935055     ;-0.357169     
   1.60585583071E+06;  0.934453     ;-0.35788      
   1.61335311406E+06;  0.933907     ;-0.359872     
   1.62088540009E+06;  0.933259     ;-0.361445     
   1.62845285222E+06;  0.932314     ;-0.362876     
   1.63605563463E+06;  0.932201     ;-0.364801     
   1.64369391226E+06;  0.931336     ;-0.365857     
   1.65136785083E+06;  0.930829     ;-0.367678     
   1.65907761684E+06;  0.930196     ;-0.36943      
   1.66682337755E+06;  0.92936      ;-0.37138      
   1.67460530100E+06;  0.929142     ;-0.372649     
   1.68242355604E+06;  0.928223     ;-0.374445     
   1.69027831229E+06;  0.92754      ;-0.37568      
   1.69816974015E+06;  0.926502     ;-0.377686     
   1.70609801085E+06;  0.926001     ;-0.379585     
   1.71406329638E+06;  0.925129     ;-0.381314     
   1.72206576956E+06;  0.924859     ;-0.382562     
   1.73010560400E+06;  0.9243       ;-0.384414     
   1.73818297415E+06;  0.923091     ;-0.386203     
   1.74629805523E+06;  0.922673     ;-0.387969     
   1.75445102331E+06;  0.922064     ;-0.389382     
   1.76264205528E+06;  0.920944     ;-0.391265     
   1.77087132885E+06;  0.920493     ;-0.393025     
   1.77913902254E+06;  0.919749     ;-0.394761     
   1.78744531575E+06;  0.919301     ;-0.396186     
   1.79579038867E+06;  0.918007     ;-0.397637     
   1.80417442236E+06;  0.917719     ;-0.399971     
   1.81259759871E+06;  0.916503     ;-0.401173     
   1.82106010047E+06;  0.915616     ;-0.403497     
   1.82956211125E+06;  0.915116     ;-0.405031     
   1.83810381549E+06;  0.914183     ;-0.406882     
   1.84668539851E+06;  0.913608     ;-0.40882      
   1.85530704650E+06;  0.912557     ;-0.410292     
   1.86396894651E+06;  0.911626     ;-0.412197     
   1.87267128646E+06;  0.910955     ;-0.413845     
   1.88141425515E+06;  0.909908     ;-0.41593      
   1.89019804228E+06;  0.909504     ;-0.417568     
   1.89902283840E+06;  0.908531     ;-0.419198     
   1.90788883499E+06;  0.907647     ;-0.421524     
   1.91679622438E+06;  0.90679      ;-0.423202     
   1.92574519984E+06;  0.905324     ;-0.424957     
   1.93473595552E+06;  0.905282     ;-0.427027     
   1.94376868647E+06;  0.90388      ;-0.428954     
   1.95284358867E+06;  0.903301     ;-0.430672     
   1.96196085901E+06;  0.901764     ;-0.43258      
   1.97112069528E+06;  0.900806     ;-0.434329     
   1.98032329621E+06;  0.90012      ;-0.435746     
   1.98956886147E+06;  0.899055     ;-0.438106     
   1.99885759164E+06;  0.898517     ;-0.440393     
   2.00818968825E+06;  0.8975       ;-0.441898     
   2.01756535375E+06;  0.896133     ;-0.443625     
   2.02698479156E+06;  0.894836     ;-0.445706     
   2.03644820605E+06;  0.893759     ;-0.447515     
   2.04595580252E+06;  0.893463     ;-0.449215     
   2.05550778725E+06;  0.892946     ;-0.451357     
   2.06510436748E+06;  0.891325     ;-0.454102     
   2.07474575141E+06;  0.890393     ;-0.455016     
   2.08443214821E+06;  0.889261     ;-0.456897     
   2.09416376803E+06;  0.889084     ;-0.459766     
   2.10394082202E+06;  0.887554     ;-0.461808     
   2.11376352229E+06;  0.886224     ;-0.463479     
   2.12363208194E+06;  0.885129     ;-0.466117     
   2.13354671509E+06;  0.883478     ;-0.467852     
   2.14350763684E+06;  0.882571     ;-0.469555     
   2.15351506329E+06;  0.88139      ;-0.471513     
   2.16356921157E+06;  0.880244     ;-0.473752     
   2.17367029980E+06;  0.879454     ;-0.476291     
   2.18381854713E+06;  0.87748      ;-0.477705     
   2.19401417374E+06;  0.876658     ;-0.478867     
   2.20425740082E+06;  0.876894     ;-0.481039     
   2.21454845061E+06;  0.875531     ;-0.483362     
   2.22488754638E+06;  0.874008     ;-0.485903     
   2.23527491245E+06;  0.872509     ;-0.487713     
   2.24571077416E+06;  0.871247     ;-0.489681     
   2.25619535795E+06;  0.869657     ;-0.491783     
   2.26672889126E+06;  0.868496     ;-0.493882     
   2.27731160265E+06;  0.867475     ;-0.495666     
   2.28794372169E+06;  0.866282     ;-0.498371     
   2.29862547907E+06;  0.864818     ;-0.50022      
   2.30935710654E+06;  0.863469     ;-0.50248      
   2.32013883691E+06;  0.862825     ;-0.504274     
   2.33097090411E+06;  0.861255     ;-0.506146     
   2.34185354315E+06;  0.859931     ;-0.507993     
   2.35278699013E+06;  0.859026     ;-0.510196     
   2.36377148226E+06;  0.857558     ;-0.512619     
   2.37480725785E+06;  0.855935     ;-0.514949     
   2.38589455633E+06;  0.854363     ;-0.516788     
   2.39703361825E+06;  0.853378     ;-0.519113     
   2.40822468528E+06;  0.852487     ;-0.521582     
   2.41946800021E+06;  0.850344     ;-0.523753     
   2.43076380698E+06;  0.848923     ;-0.525936     
   2.44211235065E+06;  0.847529     ;-0.528058     
   2.45351387743E+06;  0.846345     ;-0.529803     
   2.46496863470E+06;  0.844787     ;-0.531829     
   2.47647687096E+06;  0.84341      ;-0.534111     
   2.48803883590E+06;  0.842477     ;-0.536171     
   2.49965478036E+06;  0.840988     ;-0.538635     
   2.51132495636E+06;  0.839056     ;-0.540964     
   2.52304961708E+06;  0.837421     ;-0.542723     
   2.53482901691E+06;  0.836213     ;-0.545601     
   2.54666341139E+06;  0.834289     ;-0.547644     
   2.55855305729E+06;  0.833029     ;-0.549693     
   2.57049821256E+06;  0.831438     ;-0.551651     
   2.58249913636E+06;  0.829883     ;-0.553856     
   2.59455608905E+06;  0.828656     ;-0.55618      
   2.60666933222E+06;  0.826806     ;-0.558648     
   2.61883912867E+06;  0.824813     ;-0.561297     
   2.63106574243E+06;  0.823868     ;-0.562835     
   2.64334943877E+06;  0.82227      ;-0.565043     
   2.65569048418E+06;  0.82067      ;-0.567159     
   2.66808914643E+06;  0.818435     ;-0.570105     
   2.68054569449E+06;  0.817352     ;-0.57171      
   2.69306039863E+06;  0.815722     ;-0.574164     
   2.70563353035E+06;  0.814023     ;-0.576669     
   2.71826536245E+06;  0.812427     ;-0.578717     
   2.73095616896E+06;  0.810172     ;-0.581422     
   2.74370622524E+06;  0.808657     ;-0.582982     
   2.75651580790E+06;  0.806835     ;-0.585543     
   2.76938519486E+06;  0.805791     ;-0.588222     
   2.78231466531E+06;  0.803425     ;-0.590319     
   2.79530449978E+06;  0.801838     ;-0.592524     
   2.80835498008E+06;  0.800104     ;-0.594867     
   2.82146638936E+06;  0.798152     ;-0.597337     
   2.83463901207E+06;  0.795799     ;-0.599352     
   2.84787313400E+06;  0.794444     ;-0.601542     
   2.86116904228E+06;  0.792105     ;-0.604168     
   2.87452702537E+06;  0.790636     ;-0.606496     
   2.88794737307E+06;  0.788372     ;-0.608588     
   2.90143037655E+06;  0.786976     ;-0.611056     
   2.91497632834E+06;  0.784821     ;-0.613457     
   2.92858552231E+06;  0.783108     ;-0.615785     
   2.94225825374E+06;  0.780634     ;-0.618322     
   2.95599481925E+06;  0.778842     ;-0.620281     
   2.96979551687E+06;  0.777157     ;-0.62296      
   2.98366064602E+06;  0.775083     ;-0.625518     
   2.99759050750E+06;  0.772914     ;-0.6274       
   3.01158540354E+06;  0.77041      ;-0.630348     
   3.02564563777E+06;  0.768951     ;-0.631956     
   3.03977151522E+06;  0.766668     ;-0.634934     
   3.05396334236E+06;  0.765054     ;-0.637146     
   3.06822142711E+06;  0.763046     ;-0.639437     
   3.08254607879E+06;  0.760781     ;-0.642593     
   3.09693760819E+06;  0.758366     ;-0.644167     
   3.11139632753E+06;  0.756036     ;-0.647017     
   3.12592255052E+06;  0.753914     ;-0.649079     
   3.14051659231E+06;  0.751755     ;-0.651601     
   3.15517876952E+06;  0.74996      ;-0.654486     
   3.16990940026E+06;  0.747331     ;-0.656603     
   3.18470880411E+06;  0.74505      ;-0.659147     
   3.19957730217E+06;  0.743388     ;-0.661357     
   3.21451521700E+06;  0.739988     ;-0.663324     
   3.22952287271E+06;  0.737847     ;-0.666491     
   3.24460059488E+06;  0.735814     ;-0.66879      
   3.25974871064E+06;  0.733578     ;-0.67101      
   3.27496754864E+06;  0.731218     ;-0.673081     
   3.29025743906E+06;  0.728556     ;-0.676127     
   3.30561871362E+06;  0.726312     ;-0.678935     
   3.32105170559E+06;  0.72383      ;-0.680595     
   3.33655674981E+06;  0.721636     ;-0.684025     
   3.35213418266E+06;  0.719544     ;-0.686159     
   3.36778434211E+06;  0.716481     ;-0.68783      
   3.38350756769E+06;  0.713993     ;-0.69117      
   3.39930420053E+06;  0.711488     ;-0.693427     
   3.41517458335E+06;  0.709005     ;-0.695704     
   3.43111906047E+06;  0.706883     ;-0.698076     
   3.44713797781E+06;  0.704169     ;-0.700915     
   3.46323168291E+06;  0.701267     ;-0.703502     
   3.47940052493E+06;  0.698225     ;-0.705869     
   3.49564485467E+06;  0.695726     ;-0.708277     
   3.51196502455E+06;  0.693699     ;-0.711092     
   3.52836138867E+06;  0.690682     ;-0.713268     
   3.54483430273E+06;  0.688335     ;-0.715703     
   3.56138412413E+06;  0.685616     ;-0.718122     
   3.57801121194E+06;  0.682827     ;-0.720297     
   3.59471592688E+06;  0.679723     ;-0.722856     
   3.61149863138E+06;  0.677153     ;-0.725582     
   3.62835968954E+06;  0.674416     ;-0.728384     
   3.64529946718E+06;  0.671151     ;-0.730424     
   3.66231833181E+06;  0.668313     ;-0.733076     
   3.67941665268E+06;  0.666191     ;-0.735479     
   3.69659480073E+06;  0.663023     ;-0.737539     
   3.71385314866E+06;  0.659886     ;-0.74084      
   3.73119207091E+06;  0.656767     ;-0.742498     
   3.74861194364E+06;  0.65376      ;-0.745674     
   3.76611314479E+06;  0.651118     ;-0.748112     
   3.78369605406E+06;  0.648017     ;-0.750083     
   3.80136105293E+06;  0.645074     ;-0.753335     
   3.81910852465E+06;  0.642532     ;-0.755408     
   3.83693885425E+06;  0.639011     ;-0.758151     
   3.85485242859E+06;  0.635758     ;-0.760921     
   3.87284963629E+06;  0.6324       ;-0.763302     
   3.89093086784E+06;  0.628839     ;-0.765491     
   3.90909651550E+06;  0.626        ;-0.767401     
   3.92734697339E+06;  0.622827     ;-0.770152     
   3.94568263748E+06;  0.620483     ;-0.772938     
   3.96410390555E+06;  0.617012     ;-0.775331     
   3.98261117728E+06;  0.613385     ;-0.777871     
   4.00120485418E+06;  0.609928     ;-0.780559     
   4.01988533967E+06;  0.606965     ;-0.782576     
   4.03865303902E+06;  0.603424     ;-0.785239     
   4.05750835941E+06;  0.600414     ;-0.788103     
   4.07645170992E+06;  0.595998     ;-0.790543     
   4.09548350154E+06;  0.593315     ;-0.792432     
   4.11460414717E+06;  0.590227     ;-0.79482      
   4.13381406165E+06;  0.586796     ;-0.797524     
   4.15311366174E+06;  0.582968     ;-0.800281     
   4.17250336617E+06;  0.579222     ;-0.802613     
   4.19198359560E+06;  0.576118     ;-0.804463     
   4.21155477268E+06;  0.571656     ;-0.808117     
   4.23121732200E+06;  0.568551     ;-0.810126     
   4.25097167017E+06;  0.564847     ;-0.812263     
   4.27081824576E+06;  0.561477     ;-0.815005     
   4.29075747935E+06;  0.557803     ;-0.816711     
   4.31078980355E+06;  0.553096     ;-0.819119     
   4.33091565296E+06;  0.54986      ;-0.821839     
   4.35113546423E+06;  0.546059     ;-0.824631     
   4.37144967604E+06;  0.542216     ;-0.826552     
   4.39185872911E+06;  0.538376     ;-0.829802     
   4.41236306624E+06;  0.534675     ;-0.830974     
   4.43296313227E+06;  0.53018      ;-0.83349      
   4.45365937415E+06;  0.527491     ;-0.836012     
   4.47445224088E+06;  0.523669     ;-0.838371     
   4.49534218358E+06;  0.519267     ;-0.840319     
   4.51632965547E+06;  0.514933     ;-0.842432     
   4.53741511189E+06;  0.510411     ;-0.845465     
   4.55859901030E+06;  0.506756     ;-0.848177     
   4.57988181030E+06;  0.503101     ;-0.850272     
   4.60126397362E+06;  0.498926     ;-0.852785     
   4.62274596417E+06;  0.494808     ;-0.854771     
   4.64432824802E+06;  0.490615     ;-0.857655     
   4.66601129340E+06;  0.485854     ;-0.859712     
   4.68779557074E+06;  0.481994     ;-0.861761     
   4.70968155267E+06;  0.47739      ;-0.863777     
   4.73166971401E+06;  0.473005     ;-0.865734     
   4.75376053181E+06;  0.469424     ;-0.867827     
   4.77595448534E+06;  0.465108     ;-0.870307     
   4.79825205612E+06;  0.460483     ;-0.872834     
   4.82065372791E+06;  0.455871     ;-0.875356     
   4.84315998672E+06;  0.451021     ;-0.876692     
   4.86577132084E+06;  0.447276     ;-0.878933     
   4.88848822084E+06;  0.442386     ;-0.881548     
   4.91131117957E+06;  0.437322     ;-0.883336     
   4.93424069219E+06;  0.432682     ;-0.885512     
   4.95727725617E+06;  0.429032     ;-0.887923     
   4.98042137131E+06;  0.423973     ;-0.889478     
   5.00367353973E+06;  0.419147     ;-0.892539     
   5.02703426589E+06;  0.414759     ;-0.894253     
   5.05050405663E+06;  0.409087     ;-0.896271     
   5.07408342114E+06;  0.405176     ;-0.897828     
   5.09777287099E+06;  0.399629     ;-0.900758     
   5.12157292012E+06;  0.395461     ;-0.902764     
   5.14548408490E+06;  0.389939     ;-0.904129     
   5.16950688410E+06;  0.38576      ;-0.906418     
   5.19364183891E+06;  0.380219     ;-0.907641     
   5.21788947294E+06;  0.375421     ;-0.910679     
   5.24225031227E+06;  0.369886     ;-0.911653     
   5.26672488541E+06;  0.365565     ;-0.914267     
   5.29131372336E+06;  0.360287     ;-0.915502     
   5.31601735960E+06;  0.35594      ;-0.917213     
   5.34083633007E+06;  0.349682     ;-0.919075     
   5.36577117324E+06;  0.34485      ;-0.921385     
   5.39082243010E+06;  0.339361     ;-0.922963     
   5.41599064413E+06;  0.334385     ;-0.924573     
   5.44127636139E+06;  0.329523     ;-0.926759     
   5.46668013045E+06;  0.324048     ;-0.928016     
   5.49220250247E+06;  0.318245     ;-0.929863     
   5.51784403118E+06;  0.312825     ;-0.931607     
   5.54360527288E+06;  0.307791     ;-0.933286     
   5.56948678648E+06;  0.302348     ;-0.934905     
   5.59548913349E+06;  0.29627      ;-0.936125     
   5.62161287805E+06;  0.291076     ;-0.938148     
   5.64785858693E+06;  0.28576      ;-0.939079     
   5.67422682955E+06;  0.280034     ;-0.940253     
   5.70071817798E+06;  0.273943     ;-0.941821     
   5.72733320697E+06;  0.268335     ;-0.943597     
   5.75407249394E+06;  0.263174     ;-0.94513      
   5.78093661903E+06;  0.257285     ;-0.946767     
   5.80792616507E+06;  0.251516     ;-0.947934     
   5.83504171760E+06;  0.246109     ;-0.949191     
   5.86228386493E+06;  0.240396     ;-0.951057     
   5.88965319808E+06;  0.234674     ;-0.952228     
   5.91715031085E+06;  0.228908     ;-0.953719     
   5.94477579980E+06;  0.222363     ;-0.954791     
   5.97253026429E+06;  0.216255     ;-0.956008     
   6.00041430647E+06;  0.210506     ;-0.957096     
   6.02842853130E+06;  0.204775     ;-0.957554     
   6.05657354656E+06;  0.197424     ;-0.958609     
   6.08484996288E+06;  0.192502     ;-0.960315     
   6.11325839373E+06;  0.185766     ;-0.96131      
   6.14179945545E+06;  0.17964      ;-0.961768     
   6.17047376725E+06;  0.174112     ;-0.963        
   6.19928195125E+06;  0.166934     ;-0.9642       
   6.22822463245E+06;  0.161563     ;-0.965073     
   6.25730243878E+06;  0.154323     ;-0.965355     
   6.28651600111E+06;  0.148883     ;-0.966525     
   6.31586595324E+06;  0.141863     ;-0.966595     
   6.34535293193E+06;  0.135317     ;-0.968598     
   6.37497757692E+06;  0.129057     ;-0.968619     
   6.40474053094E+06;  0.122055     ;-0.968822     
   6.43464243971E+06;  0.115374     ;-0.96959      
   6.46468395198E+06;  0.109578     ;-0.970459     
   6.49486571950E+06;  0.102622     ;-0.970464     
   6.52518839710E+06;  0.0958333    ;-0.971329     
   6.55565264265E+06;  0.0892375    ;-0.971764     
   6.58625911707E+06;  0.0834176    ;-0.972234     
   6.61700848441E+06;  0.0767185    ;-0.972154     
   6.64790141178E+06;  0.0697219    ;-0.972285     
   6.67893856942E+06;  0.0630107    ;-0.972774     
   6.71012063072E+06;  0.056743     ;-0.973208     
   6.74144827217E+06;  0.04923      ;-0.972464     
   6.77292217346E+06;  0.0424215    ;-0.973371     
   6.80454301742E+06;  0.0355649    ;-0.973245     
   6.83631149009E+06;  0.0286511    ;-0.97327      
   6.86822828072E+06;  0.0222008    ;-0.973731     
   6.90029408174E+06;  0.0148265    ;-0.973242     
   6.93250958885E+06;  0.00803617   ;-0.973423     
   6.96487550099E+06;  0.000329351  ;-0.973394     
   6.99739252035E+06; -0.00695768   ;-0.972169     
   7.03006135241E+06; -0.0139294    ;-0.972194     
   7.06288270594E+06; -0.0209957    ;-0.971849     
   7.09585729302E+06; -0.0278308    ;-0.972175     
   7.12898582905E+06; -0.0353174    ;-0.971714     
   7.16226903277E+06; -0.0427449    ;-0.970291     
   7.19570762629E+06; -0.049267     ;-0.970185     
   7.22930233508E+06; -0.0568412    ;-0.969441     
   7.26305388799E+06; -0.0643759    ;-0.968366     
   7.29696301729E+06; -0.0715168    ;-0.967295     
   7.33103045865E+06; -0.0786739    ;-0.966741     
   7.36525695118E+06; -0.086709     ;-0.96617      
   7.39964323746E+06; -0.0944114    ;-0.965342     
   7.43419006352E+06; -0.102088     ;-0.963935     
   7.46889817886E+06; -0.108832     ;-0.962688     
   7.50376833650E+06; -0.116511     ;-0.961789     
   7.53880129297E+06; -0.124475     ;-0.960547     
   7.57399780834E+06; -0.132678     ;-0.959335     
   7.60935864621E+06; -0.139934     ;-0.957603     
   7.64488457376E+06; -0.146783     ;-0.956582     
   7.68057636174E+06; -0.155346     ;-0.954537     
   7.71643478451E+06; -0.16205      ;-0.953144     
   7.75246062004E+06; -0.169968     ;-0.951961     
   7.78865464993E+06; -0.178134     ;-0.949793     
   7.82501765943E+06; -0.184547     ;-0.947906     
   7.86155043747E+06; -0.192088     ;-0.946179     
   7.89825377664E+06; -0.199954     ;-0.944263     
   7.93512847324E+06; -0.206884     ;-0.941892     
   7.97217532729E+06; -0.214151     ;-0.940328     
   8.00939514255E+06; -0.222123     ;-0.938301     
   8.04678872653E+06; -0.229742     ;-0.936144     
   8.08435689049E+06; -0.236783     ;-0.933488     
   8.12210044951E+06; -0.244388     ;-0.931529     
   8.16002022245E+06; -0.253504     ;-0.928809     
   8.19811703201E+06; -0.26114      ;-0.926355     
   8.23639170472E+06; -0.269079     ;-0.92419      
   8.27484507097E+06; -0.276762     ;-0.921134     
   8.31347796503E+06; -0.284886     ;-0.918419     
   8.35229122506E+06; -0.293198     ;-0.915703     
   8.39128569315E+06; -0.301461     ;-0.912525     
   8.43046221530E+06; -0.308758     ;-0.908862     
   8.46982164147E+06; -0.31702      ;-0.90654      
   8.50936482559E+06; -0.325117     ;-0.903306     
   8.54909262557E+06; -0.332961     ;-0.900214     
   8.58900590333E+06; -0.34141      ;-0.896483     
   8.62910552481E+06; -0.3488       ;-0.892548     
   8.66939236000E+06; -0.356827     ;-0.889163     
   8.70986728294E+06; -0.364746     ;-0.885306     
   8.75053117177E+06; -0.371939     ;-0.881533     
   8.79138490870E+06; -0.380662     ;-0.877682     
   8.83242938010E+06; -0.388013     ;-0.873879     
   8.87366547644E+06; -0.39593      ;-0.87023      
   8.91509409236E+06; -0.403531     ;-0.866377     
   8.95671612669E+06; -0.4115       ;-0.861746     
   8.99853248244E+06; -0.419375     ;-0.857302     
   9.04054406684E+06; -0.426897     ;-0.853096     
   9.08275179136E+06; -0.434763     ;-0.848646     
   9.12515657172E+06; -0.442087     ;-0.843684     
   9.16775932792E+06; -0.450078     ;-0.839408     
   9.21056098424E+06; -0.457557     ;-0.835035     
   9.25356246931E+06; -0.465302     ;-0.829842     
   9.29676471606E+06; -0.472582     ;-0.824489     
   9.34016866179E+06; -0.481011     ;-0.81976      
   9.38377524818E+06; -0.488493     ;-0.814735     
   9.42758542129E+06; -0.496298     ;-0.809907     
   9.47160013162E+06; -0.504239     ;-0.804387     
   9.51582033409E+06; -0.511832     ;-0.798528     
   9.56024698809E+06; -0.51975      ;-0.793238     
   9.60488105748E+06; -0.52707      ;-0.787985     
   9.64972351063E+06; -0.534822     ;-0.78261      
   9.69477532041E+06; -0.542743     ;-0.776412     
   9.74003746425E+06; -0.550017     ;-0.769681     
   9.78551092415E+06; -0.557866     ;-0.763581     
   9.83119668668E+06; -0.565304     ;-0.757635     
   9.87709574301E+06; -0.572703     ;-0.751187     
   9.92320908897E+06; -0.579743     ;-0.744925     
   9.96953772500E+06; -0.58744      ;-0.737835     
   1.00160826562E+07; -0.594671     ;-0.731199     
   1.00628448925E+07; -0.602537     ;-0.724344     
   1.01098254483E+07; -0.60912      ;-0.718047     
   1.01570253429E+07; -0.616541     ;-0.710878     
   1.02044456004E+07; -0.622932     ;-0.70513      
   1.02520872496E+07; -0.629123     ;-0.697284     
   1.02999513241E+07; -0.637056     ;-0.690109     
   1.03480388622E+07; -0.643145     ;-0.682651     
   1.03963509075E+07; -0.651049     ;-0.675513     
   1.04448885078E+07; -0.657251     ;-0.668034     
   1.04936527164E+07; -0.664773     ;-0.660361     
   1.05426445912E+07; -0.670577     ;-0.652328     
   1.05918651951E+07; -0.677454     ;-0.644421     
   1.06413155960E+07; -0.684695     ;-0.636543     
   1.06909968667E+07; -0.691657     ;-0.628472     
   1.07409100851E+07; -0.69804      ;-0.62075      
   1.07910563342E+07; -0.704226     ;-0.611801     
   1.08414367017E+07; -0.709632     ;-0.603091     
   1.08920522808E+07; -0.716792     ;-0.594879     
   1.09429041697E+07; -0.722401     ;-0.58657      
   1.09939934715E+07; -0.728583     ;-0.577608     
   1.10453212948E+07; -0.735367     ;-0.568574     
   1.10968887530E+07; -0.74102      ;-0.56001      
   1.11486969650E+07; -0.746249     ;-0.550947     
   1.12007470548E+07; -0.752243     ;-0.541342     
   1.12530401516E+07; -0.757966     ;-0.531807     
   1.13055773899E+07; -0.76326      ;-0.52279      
   1.13583599097E+07; -0.769126     ;-0.512943     
   1.14113888560E+07; -0.773754     ;-0.503944     
   1.14646653794E+07; -0.78034      ;-0.494084     
   1.15181906357E+07; -0.784639     ;-0.48456      
   1.15719657861E+07; -0.789075     ;-0.474115     
   1.16259919974E+07; -0.794069     ;-0.464169     
   1.16802704417E+07; -0.798914     ;-0.453789     
   1.17348022966E+07; -0.804034     ;-0.443377     
   1.17895887452E+07; -0.809173     ;-0.432604     
   1.18446309761E+07; -0.81408      ;-0.423041     
   1.18999301835E+07; -0.817908     ;-0.412918     
   1.19554875671E+07; -0.822084     ;-0.401916     
   1.20113043323E+07; -0.825921     ;-0.390802     
   1.20673816901E+07; -0.83036      ;-0.379939     
   1.21237208571E+07; -0.834948     ;-0.36934      
   1.21803230557E+07; -0.838445     ;-0.358582     
   1.22371895137E+07; -0.842054     ;-0.347358     
   1.22943214651E+07; -0.845627     ;-0.336825     
   1.23517201492E+07; -0.84837      ;-0.325488     
   1.24093868115E+07; -0.852082     ;-0.314011     
   1.24673227030E+07; -0.854869     ;-0.302435     
   1.25255290806E+07; -0.857938     ;-0.290149     
   1.25840072073E+07; -0.86072      ;-0.27888      
   1.26427583516E+07; -0.863333     ;-0.26776      
   1.27017837883E+07; -0.866186     ;-0.25465      
   1.27610847980E+07; -0.869017     ;-0.242683     
   1.28206626672E+07; -0.871593     ;-0.231038     
   1.28805186885E+07; -0.873115     ;-0.218679     
   1.29406541604E+07; -0.874877     ;-0.20623      
   1.30010703878E+07; -0.876284     ;-0.19405      
   1.30617686813E+07; -0.878169     ;-0.181519     
   1.31227503579E+07; -0.879804     ;-0.169596     
   1.31840167405E+07; -0.880412     ;-0.156907     
   1.32455691585E+07; -0.881536     ;-0.144287     
   1.33074089471E+07; -0.881893     ;-0.132017     
   1.33695374481E+07; -0.881767     ;-0.119291     
   1.34319560093E+07; -0.882548     ;-0.106411     
   1.34946659850E+07; -0.881523     ;-0.0947347    
   1.35576687358E+07; -0.881629     ;-0.0835147    
   1.36209656284E+07; -0.881394     ;-0.0713886    
   1.36845580362E+07; -0.880967     ;-0.0591275    
   1.37484473388E+07; -0.880297     ;-0.0478195    
   1.38126349224E+07; -0.879216     ;-0.037        
   1.38771221795E+07; -0.879581     ;-0.0233428    
   1.39419105092E+07; -0.878105     ;-0.00907917   
   1.40070013172E+07; -0.877042     ; 0.00565905   
   1.40723960157E+07; -0.875585     ; 0.0209379    
   1.41380960233E+07; -0.874224     ; 0.0363495    
   1.42041027656E+07; -0.872326     ; 0.0515484    
   1.42704176745E+07; -0.87032      ; 0.0651235    
   1.43370421889E+07; -0.868178     ; 0.0776421    
   1.44039777541E+07; -0.865513     ; 0.0895924    
   1.44712258224E+07; -0.862462     ; 0.101579     
   1.45387878528E+07; -0.858855     ; 0.11519      
   1.46066653111E+07; -0.855544     ; 0.127244     
   1.46748596698E+07; -0.851968     ; 0.139238     
   1.47433724086E+07; -0.847625     ; 0.152076     
   1.48122050139E+07; -0.843202     ; 0.16512      
   1.48813589790E+07; -0.839122     ; 0.178222     
   1.49508358042E+07; -0.834316     ; 0.192152     
   1.50206369970E+07; -0.830169     ; 0.205119     
   1.50907640716E+07; -0.825522     ; 0.217194     
   1.51612185496E+07; -0.819398     ; 0.23056      
   1.52320019594E+07; -0.814535     ; 0.244017     
   1.53031158368E+07; -0.808786     ; 0.256221     
   1.53745617247E+07; -0.802309     ; 0.269455     
   1.54463411730E+07; -0.796138     ; 0.282218     
   1.55184557392E+07; -0.790183     ; 0.295044     
   1.55909069877E+07; -0.782819     ; 0.307801     
   1.56636964904E+07; -0.776017     ; 0.320259     
   1.57368258266E+07; -0.769144     ; 0.333081     
   1.58102965828E+07; -0.761451     ; 0.345361     
   1.58841103531E+07; -0.752702     ; 0.357974     
   1.59582687388E+07; -0.744999     ; 0.370326     
   1.60327733489E+07; -0.736939     ; 0.381375     
   1.61076257998E+07; -0.728073     ; 0.394048     
   1.61828277154E+07; -0.71921      ; 0.406067     
   1.62583807274E+07; -0.710091     ; 0.418022     
   1.63342864749E+07; -0.700721     ; 0.428758     
   1.64105466046E+07; -0.691698     ; 0.440505     
   1.64871627712E+07; -0.681586     ; 0.45112      
   1.65641366369E+07; -0.671524     ; 0.462517     
   1.66414698715E+07; -0.661234     ; 0.472515     
   1.67191641531E+07; -0.650552     ; 0.483306     
   1.67972211671E+07; -0.640087     ; 0.493922     
   1.68756426070E+07; -0.628557     ; 0.503934     
   1.69544301743E+07; -0.617534     ; 0.513974     
   1.70335855784E+07; -0.606267     ; 0.523846     
   1.71131105364E+07; -0.594245     ; 0.533884     
   1.71930067738E+07; -0.582172     ; 0.543617     
   1.72732760240E+07; -0.569963     ; 0.552528     
   1.73539200285E+07; -0.557069     ; 0.562545     
   1.74349405368E+07; -0.544124     ; 0.571347     
   1.75163393068E+07; -0.531581     ; 0.579445     
   1.75981181045E+07; -0.518231     ; 0.587354     
   1.76802787040E+07; -0.505941     ; 0.595621     
   1.77628228880E+07; -0.492216     ; 0.603149     
   1.78457524473E+07; -0.478301     ; 0.609883     
   1.79290691811E+07; -0.464139     ; 0.617821     
   1.80127748969E+07; -0.450742     ; 0.624585     
   1.80968714109E+07; -0.434841     ; 0.632091     
   1.81813605476E+07; -0.419566     ; 0.639245     
   1.82662441400E+07; -0.403898     ; 0.64614      
   1.83515240296E+07; -0.387853     ; 0.653821     
   1.84372020668E+07; -0.37193      ; 0.659924     
   1.85232801104E+07; -0.354454     ; 0.666179     
   1.86097600278E+07; -0.337384     ; 0.670834     
   1.86966436952E+07; -0.320975     ; 0.676119     
   1.87839329978E+07; -0.304254     ; 0.679579     
   1.88716298293E+07; -0.288623     ; 0.68365      
   1.89597360923E+07; -0.272206     ; 0.686417     
   1.90482536983E+07; -0.257299     ; 0.688447     
   1.91371845678E+07; -0.240415     ; 0.691821     
   1.92265306302E+07; -0.223421     ; 0.693585     
   1.93162938239E+07; -0.206583     ; 0.695169     
   1.94064760964E+07; -0.189308     ; 0.69633      
   1.94970794042E+07; -0.172647     ; 0.697959     
   1.95881057130E+07; -0.155747     ; 0.697865     
   1.96795569978E+07; -0.138081     ; 0.697821     
   1.97714352425E+07; -0.121396     ; 0.697846     
   1.98637424406E+07; -0.103645     ; 0.696372     
   1.99564805947E+07; -0.0871261    ; 0.694939     
   2.00496517169E+07; -0.0703085    ; 0.692788     
   2.01432578284E+07; -0.0532178    ; 0.69086      
   2.02373009602E+07; -0.0356669    ; 0.688254     
   2.03317831526E+07; -0.0191738    ; 0.68441      
   2.04267064554E+07; -0.00222157   ; 0.680617     
   2.05220729281E+07;  0.0158804    ; 0.67718      
   2.06178846397E+07;  0.0336114    ; 0.672464     
   2.07141436689E+07;  0.0520077    ; 0.667652     
   2.08108521040E+07;  0.0705717    ; 0.662185     
   2.09080120433E+07;  0.0855194    ; 0.655863     
   2.10056255947E+07;  0.104476     ; 0.649441     
   2.11036948759E+07;  0.122301     ; 0.642695     
   2.12022220146E+07;  0.137475     ; 0.635194     
   2.13012091485E+07;  0.153517     ; 0.626515     
   2.14006584251E+07;  0.169063     ; 0.61753      
   2.15005720021E+07;  0.1842       ; 0.609        
   2.16009520471E+07;  0.199792     ; 0.599554     
   2.17018007379E+07;  0.215032     ; 0.589717     
   2.18031202625E+07;  0.229871     ; 0.578601     
   2.19049128191E+07;  0.245043     ; 0.567195     
   2.20071806162E+07;  0.260052     ; 0.555506     
   2.21099258724E+07;  0.274885     ; 0.544284     
   2.22131508170E+07;  0.289515     ; 0.531596     
   2.23168576894E+07;  0.303024     ; 0.517528     
   2.24210487397E+07;  0.316064     ; 0.504268     
   2.25257262283E+07;  0.328924     ; 0.490325     
   2.26308924263E+07;  0.341185     ; 0.476006     
   2.27365496153E+07;  0.352879     ; 0.461265     
   2.28427000876E+07;  0.364543     ; 0.446714     
   2.29493461463E+07;  0.375226     ; 0.43049      
   2.30564901050E+07;  0.385786     ; 0.414599     
   2.31641342883E+07;  0.395983     ; 0.397961     
   2.32722810316E+07;  0.405586     ; 0.380939     
   2.33809326812E+07;  0.414644     ; 0.363567     
   2.34900915945E+07;  0.423545     ; 0.345884     
   2.35997601396E+07;  0.431501     ; 0.327856     
   2.37099406959E+07;  0.438947     ; 0.309641     
   2.38206356539E+07;  0.445829     ; 0.290867     
   2.39318474150E+07;  0.451983     ; 0.271964     
   2.40435783922E+07;  0.45749      ; 0.252862     
   2.41558310095E+07;  0.462297     ; 0.233619     
   2.42686077023E+07;  0.466438     ; 0.21407      
   2.43819109173E+07;  0.46994      ; 0.194385     
   2.44957431128E+07;  0.472618     ; 0.174561     
   2.46101067583E+07;  0.474641     ; 0.154585     
   2.47250043351E+07;  0.475894     ; 0.134414     
   2.48404383360E+07;  0.476508     ; 0.114259     
   2.49564112653E+07;  0.476405     ; 0.0940932    
   2.50729256392E+07;  0.475249     ; 0.0736752    
   2.51899839856E+07;  0.473936     ; 0.0531703    
   2.53075888439E+07;  0.471439     ; 0.0330655    
   2.54257427659E+07;  0.468253     ; 0.0129432    
   2.55444483149E+07;  0.464267     ;-0.00719511   
   2.56637080662E+07;  0.459654     ;-0.0273182    
   2.57835246073E+07;  0.454189     ;-0.0469807    
   2.59039005378E+07;  0.447847     ;-0.066836     
   2.60248384692E+07;  0.440869     ;-0.0862379    
   2.61463410253E+07;  0.433199     ;-0.105451     
   2.62684108422E+07;  0.424639     ;-0.124351     
   2.63910505683E+07;  0.415267     ;-0.143092     
   2.65142628644E+07;  0.40542      ;-0.161629     
   2.66380504035E+07;  0.394403     ;-0.179118     
   2.67624158715E+07;  0.382824     ;-0.196726     
   2.68873619663E+07;  0.370722     ;-0.213846     
   2.70128913989E+07;  0.357859     ;-0.230426     
   2.71390068926E+07;  0.34436      ;-0.246263     
   2.72657111837E+07;  0.330443     ;-0.261424     
   2.73930070210E+07;  0.315689     ;-0.276585     
   2.75208971662E+07;  0.30019      ;-0.29082      
   2.76493843942E+07;  0.284403     ;-0.304623     
   2.77784714923E+07;  0.267703     ;-0.317966     
   2.79081612614E+07;  0.250234     ;-0.330797     
   2.80384565151E+07;  0.232565     ;-0.342571     
   2.81693600801E+07;  0.214213     ;-0.353651     
   2.83008747966E+07;  0.195845     ;-0.364082     
   2.84330035179E+07;  0.17688      ;-0.373435     
   2.85657491105E+07;  0.157934     ;-0.382275     
   2.86991144545E+07;  0.138462     ;-0.39034      
   2.88331024432E+07;  0.117947     ;-0.397365     
   2.89677159837E+07;  0.0975381    ;-0.403635     
   2.91029579965E+07;  0.0767919    ;-0.409059     
   2.92388314157E+07;  0.0553961    ;-0.414133     
   2.93753391892E+07;  0.0339691    ;-0.418047     
   2.95124842786E+07;  0.0118112    ;-0.420953     
   2.96502696593E+07; -0.0105301    ;-0.423246     
   2.97886983207E+07; -0.0328615    ;-0.424446     
   2.99277732661E+07; -0.0541676    ;-0.424671     
   3.00674975128E+07; -0.0754792    ;-0.424099     
   3.02078740922E+07; -0.0962816    ;-0.42265      
   3.03489060499E+07; -0.117351     ;-0.420189     
   3.04905964456E+07; -0.138449     ;-0.417053     
   3.06329483533E+07; -0.158859     ;-0.413115     
   3.07759648616E+07; -0.179532     ;-0.408864     
   3.09196490732E+07; -0.200015     ;-0.403024     
   3.10640041054E+07; -0.220575     ;-0.396541     
   3.12090330902E+07; -0.24084      ;-0.388872     
   3.13547391740E+07; -0.260996     ;-0.38097      
   3.15011255179E+07; -0.280708     ;-0.371216     
   3.16481952980E+07; -0.299911     ;-0.361902     
   3.17959517050E+07; -0.319248     ;-0.351292     
   3.19443979446E+07; -0.337592     ;-0.339818     
   3.20935372374E+07; -0.355266     ;-0.327027     
   3.22433728190E+07; -0.373361     ;-0.314411     
   3.23939079403E+07; -0.389452     ;-0.301229     
   3.25451458671E+07; -0.405745     ;-0.287257     
   3.26970898808E+07; -0.42139      ;-0.272575     
   3.28497432778E+07; -0.436634     ;-0.257448     
   3.30031093699E+07; -0.451244     ;-0.241513     
   3.31571914847E+07; -0.464972     ;-0.225213     
   3.33119929650E+07; -0.478005     ;-0.208721     
   3.34675171693E+07; -0.490606     ;-0.191323     
   3.36237674717E+07; -0.502328     ;-0.173618     
   3.37807472624E+07; -0.513743     ;-0.154703     
   3.39384599469E+07; -0.524472     ;-0.136201     
   3.40969089470E+07; -0.534465     ;-0.116689     
   3.42560977004E+07; -0.543384     ;-0.097256     
   3.44160296607E+07; -0.551713     ;-0.0769607    
   3.45767082978E+07; -0.559637     ;-0.0568668    
   3.47381370976E+07; -0.566202     ;-0.0359053    
   3.49003195625E+07; -0.572012     ;-0.0151206    
   3.50632592111E+07; -0.577191     ; 0.00552057   
   3.52269595786E+07; -0.581806     ; 0.0265926    
   3.53914242164E+07; -0.585522     ; 0.0475866    
   3.55566566927E+07; -0.587936     ; 0.0687257    
   3.57226605924E+07; -0.590452     ; 0.0902011    
   3.58894395170E+07; -0.591727     ; 0.111631     
   3.60569970849E+07; -0.592308     ; 0.13298      
   3.62253369313E+07; -0.592189     ; 0.153915     
   3.63944627086E+07; -0.59109      ; 0.17525      
   3.65643780859E+07; -0.589545     ; 0.196693     
   3.67350867496E+07; -0.587161     ; 0.217873     
   3.69065924035E+07; -0.583922     ; 0.239126     
   3.70788987684E+07; -0.580087     ; 0.259443     
   3.72520095827E+07; -0.575335     ; 0.280485     
   3.74259286020E+07; -0.570124     ; 0.301188     
   3.76006595997E+07; -0.564167     ; 0.321165     
   3.77762063666E+07; -0.557304     ; 0.341752     
   3.79525727113E+07; -0.550597     ; 0.361934     
   3.81297624603E+07; -0.542125     ; 0.381148     
   3.83077794577E+07; -0.533445     ; 0.400731     
   3.84866275658E+07; -0.524639     ; 0.42028      
   3.86663106647E+07; -0.51437      ; 0.438131     
   3.88468326529E+07; -0.503527     ; 0.456352     
   3.90281974467E+07; -0.49208      ; 0.474513     
   3.92104089811E+07; -0.481393     ; 0.49229      
   3.93934712093E+07; -0.468433     ; 0.509994     
   3.95773881028E+07; -0.455925     ; 0.526719     
   3.97621636519E+07; -0.442756     ; 0.542459     
   3.99478018654E+07; -0.427908     ; 0.558527     
   4.01343067708E+07; -0.414627     ; 0.574377     
   4.03216824145E+07; -0.398859     ; 0.589133     
   4.05099328617E+07; -0.383582     ; 0.603347     
   4.06990621966E+07; -0.368177     ; 0.616886     
   4.08890745225E+07; -0.352189     ; 0.631429     
   4.10799739618E+07; -0.335524     ; 0.64454      
   4.12717646562E+07; -0.318175     ; 0.65643      
   4.14644507667E+07; -0.30096      ; 0.668236     
   4.16580364737E+07; -0.283942     ; 0.679992     
   4.18525259773E+07; -0.266102     ; 0.690966     
   4.20479234969E+07; -0.249875     ; 0.700031     
   4.22442332719E+07; -0.228905     ; 0.710914     
   4.24414595613E+07; -0.209552     ; 0.719941     
   4.26396066441E+07; -0.190904     ; 0.728194     
   4.28386788191E+07; -0.170942     ; 0.736563     
   4.30386804054E+07; -0.152127     ; 0.743961     
   4.32396157421E+07; -0.131715     ; 0.75059      
   4.34414891886E+07; -0.111427     ; 0.756867     
   4.36443051248E+07; -0.091832     ; 0.762452     
   4.38480679508E+07; -0.0704502    ; 0.767983     
   4.40527820874E+07; -0.0505464    ; 0.772151     
   4.42584519759E+07; -0.0295589    ; 0.775735     
   4.44650820786E+07; -0.0091726    ; 0.779222     
   4.46726768783E+07;  0.0111896    ; 0.782393     
   4.48812408790E+07;  0.0326963    ; 0.784649     
   4.50907786056E+07;  0.0537135    ; 0.785934     
   4.53012946042E+07;  0.0748901    ; 0.786518     
   4.55127934419E+07;  0.0961085    ; 0.787068     
   4.57252797075E+07;  0.116872     ; 0.786746     
   4.59387580110E+07;  0.137897     ; 0.785522     
   4.61532329838E+07;  0.15892      ; 0.783945     
   4.63687092791E+07;  0.180018     ; 0.782194     
   4.65851915719E+07;  0.201191     ; 0.779758     
   4.68026845588E+07;  0.22125      ; 0.776171     
   4.70211929585E+07;  0.242469     ; 0.772694     
   4.72407215117E+07;  0.26316      ; 0.768003     
   4.74612749811E+07;  0.283834     ; 0.762768     
   4.76828581519E+07;  0.304218     ; 0.757388     
   4.79054758313E+07;  0.324482     ; 0.751003     
   4.81291328493E+07;  0.344939     ; 0.744199     
   4.83538340582E+07;  0.36463      ; 0.736895     
   4.85795843329E+07;  0.384147     ; 0.729681     
   4.88063885715E+07;  0.403964     ; 0.721062     
   4.90342516943E+07;  0.423303     ; 0.711982     
   4.92631786452E+07;  0.442117     ; 0.702726     
   4.94931743908E+07;  0.461376     ; 0.692404     
   4.97242439210E+07;  0.480385     ; 0.682445     
   4.99563922490E+07;  0.498831     ; 0.671266     
   5.01896244114E+07;  0.516736     ; 0.659909     
   5.04239454683E+07;  0.534419     ; 0.647988     
   5.06593605035E+07;  0.552066     ; 0.635455     
   5.08958746244E+07;  0.569445     ; 0.622022     
   5.11334929623E+07;  0.586356     ; 0.608186     
   5.13722206726E+07;  0.60275      ; 0.594657     
   5.16120629345E+07;  0.619167     ; 0.579979     
   5.18530249516E+07;  0.634737     ; 0.565608     
   5.20951119517E+07;  0.650714     ; 0.550112     
   5.23383291871E+07;  0.66513      ; 0.534522     
   5.25826819344E+07;  0.680338     ; 0.518107     
   5.28281754951E+07;  0.694751     ; 0.501538     
   5.30748151953E+07;  0.708397     ; 0.484443     
   5.33226063859E+07;  0.721943     ; 0.467083     
   5.35715544431E+07;  0.734957     ; 0.449328     
   5.38216647678E+07;  0.747382     ; 0.431203     
   5.40729427863E+07;  0.759219     ; 0.412563     
   5.43253939503E+07;  0.770819     ; 0.393618     
   5.45790237369E+07;  0.781793     ; 0.374863     
   5.48338376487E+07;  0.792483     ; 0.355296     
   5.50898412140E+07;  0.802262     ; 0.335151     
   5.53470399871E+07;  0.811858     ; 0.314833     
   5.56054395479E+07;  0.821118     ; 0.294778     
   5.58650455027E+07;  0.829689     ; 0.273869     
   5.61258634837E+07;  0.837658     ; 0.252779     
   5.63878991496E+07;  0.844716     ; 0.231118     
   5.66511581853E+07;  0.851577     ; 0.209726     
   5.69156463025E+07;  0.858343     ; 0.188387     
   5.71813692393E+07;  0.864055     ; 0.166036     
   5.74483327608E+07;  0.868849     ; 0.144273     
   5.77165426589E+07;  0.873814     ; 0.121857     
   5.79860047526E+07;  0.877534     ; 0.0994462    
   5.82567248881E+07;  0.881079     ; 0.0762764    
   5.85287089388E+07;  0.8836       ; 0.0536854    
   5.88019628055E+07;  0.88554      ; 0.0306654    
   5.90764924166E+07;  0.887383     ; 0.00796928   
   5.93523037283E+07;  0.888258     ;-0.0153883    
   5.96294027244E+07;  0.88863      ;-0.0385416    
   5.99077954168E+07;  0.888198     ;-0.0625589    
   6.01874878453E+07;  0.887363     ;-0.0853605    
   6.04684860782E+07;  0.88573      ;-0.109417     
   6.07507962117E+07;  0.883762     ;-0.132482     
   6.10344243707E+07;  0.880209     ;-0.155946     
   6.13193767089E+07;  0.876855     ;-0.179739     
   6.16056594083E+07;  0.872631     ;-0.203247     
   6.18932786801E+07;  0.867666     ;-0.226729     
   6.21822407643E+07;  0.862231     ;-0.249818     
   6.24725519302E+07;  0.855914     ;-0.273242     
   6.27642184762E+07;  0.849055     ;-0.296347     
   6.30572467302E+07;  0.841666     ;-0.319736     
   6.33516430496E+07;  0.83296      ;-0.342588     
   6.36474138216E+07;  0.824085     ;-0.365611     
   6.39445654630E+07;  0.814795     ;-0.388132     
   6.42431044208E+07;  0.803997     ;-0.410618     
   6.45430371719E+07;  0.793594     ;-0.433001     
   6.48443702236E+07;  0.782194     ;-0.454621     
   6.51471101134E+07;  0.769467     ;-0.476784     
   6.54512634096E+07;  0.757077     ;-0.497974     
   6.57568367108E+07;  0.74293      ;-0.519031     
   6.60638366467E+07;  0.729278     ;-0.540096     
   6.63722698778E+07;  0.713505     ;-0.560251     
   6.66821430959E+07;  0.698633     ;-0.581067     
   6.69934630236E+07;  0.682513     ;-0.600407     
   6.73062364155E+07;  0.664637     ;-0.620003     
   6.76204700572E+07;  0.647822     ;-0.638988     
   6.79361707662E+07;  0.629178     ;-0.657274     
   6.82533453919E+07;  0.610808     ;-0.67509      
   6.85720008156E+07;  0.590497     ;-0.693008     
   6.88921439506E+07;  0.570919     ;-0.710095     
   6.92137817427E+07;  0.55086      ;-0.727102     
   6.95369211701E+07;  0.529453     ;-0.743119     
   6.98615692434E+07;  0.507506     ;-0.758311     
   7.01877330060E+07;  0.485867     ;-0.77349      
   7.05154195343E+07;  0.462558     ;-0.787031     
   7.08446359376E+07;  0.439467     ;-0.801308     
   7.11753893586E+07;  0.415179     ;-0.813601     
   7.15076869730E+07;  0.391087     ;-0.826291     
   7.18415359903E+07;  0.366426     ;-0.83786      
   7.21769436536E+07;  0.341358     ;-0.848207     
   7.25139172397E+07;  0.315357     ;-0.859031     
   7.28524640594E+07;  0.289314     ;-0.86829      
   7.31925914578E+07;  0.262815     ;-0.876606     
   7.35343068141E+07;  0.235953     ;-0.883968     
   7.38776175420E+07;  0.208559     ;-0.890341     
   7.42225310900E+07;  0.181762     ;-0.897694     
   7.45690549410E+07;  0.153025     ;-0.902587     
   7.49171966131E+07;  0.124818     ;-0.906255     
   7.52669636596E+07;  0.0961426    ;-0.910255     
   7.56183636687E+07;  0.0678607    ;-0.913021     
   7.59714042643E+07;  0.0389639    ;-0.91412      
   7.63260931059E+07;  0.0105987    ;-0.914568     
   7.66824378886E+07; -0.0181357    ;-0.914993     
   7.70404463437E+07; -0.0482111    ;-0.914157     
   7.74001262381E+07; -0.0778242    ;-0.912069     
   7.77614853756E+07; -0.106895     ;-0.908831     
   7.81245315959E+07; -0.135562     ;-0.904358     
   7.84892727755E+07; -0.165307     ;-0.899255     
   7.88557168278E+07; -0.194772     ;-0.893973     
   7.92238717030E+07; -0.223667     ;-0.885623     
   7.95937453884E+07; -0.253594     ;-0.878229     
   7.99653459087E+07; -0.282845     ;-0.869218     
   8.03386813259E+07; -0.311444     ;-0.859554     
   8.07137597398E+07; -0.339018     ;-0.847093     
   8.10905892880E+07; -0.36774      ;-0.836016     
   8.14691781460E+07; -0.396273     ;-0.821922     
   8.18495345275E+07; -0.423064     ;-0.808752     
   8.22316666845E+07; -0.450384     ;-0.79303      
   8.26155829078E+07; -0.476996     ;-0.77649      
   8.30012915265E+07; -0.503449     ;-0.758903     
   8.33888009088E+07; -0.529734     ;-0.740392     
   8.37781194620E+07; -0.554792     ;-0.721177     
   8.41692556327E+07; -0.579509     ;-0.701861     
   8.45622179067E+07; -0.603354     ;-0.68053      
   8.49570148096E+07; -0.626533     ;-0.657903     
   8.53536549067E+07; -0.649461     ;-0.635419     
   8.57521468035E+07; -0.670868     ;-0.610967     
   8.61524991454E+07; -0.692548     ;-0.586298     
   8.65547206183E+07; -0.71231      ;-0.560184     
   8.69588199487E+07; -0.732147     ;-0.53431      
   8.73648059037E+07; -0.749825     ;-0.506688     
   8.77726872915E+07; -0.768043     ;-0.478113     
   8.81824729612E+07; -0.784477     ;-0.449056     
   8.85941718035E+07; -0.800349     ;-0.420018     
   8.90077927504E+07; -0.814531     ;-0.390032     
   8.94233447757E+07; -0.827367     ;-0.359355     
   8.98408368949E+07; -0.839271     ;-0.327288     
   9.02602781660E+07; -0.850752     ;-0.294384     
   9.06816776888E+07; -0.859988     ;-0.262144     
   9.11050446059E+07; -0.868819     ;-0.228683     
   9.15303881026E+07; -0.876227     ;-0.194898     
   9.19577174068E+07; -0.882685     ;-0.161131     
   9.23870417898E+07; -0.886973     ;-0.126634     
   9.28183705661E+07; -0.890364     ;-0.0918486    
   9.32517130935E+07; -0.891994     ;-0.0573226    
   9.36870787737E+07; -0.892607     ;-0.0218114    
   9.41244770522E+07; -0.891864     ; 0.0136629    
   9.45639174187E+07; -0.889546     ; 0.0491971    
   9.50054094070E+07; -0.885572     ; 0.0846162    
   9.54489625957E+07; -0.880483     ; 0.119552     
   9.58945866078E+07; -0.873592     ; 0.155099     
   9.63422911115E+07; -0.865329     ; 0.190783     
   9.67920858199E+07; -0.8552       ; 0.225023     
   9.72439804917E+07; -0.844095     ; 0.259505     
   9.76979849309E+07; -0.831681     ; 0.293588     
   9.81541089876E+07; -0.816234     ; 0.328266     
   9.86123625575E+07; -0.800119     ; 0.361019     
   9.90727555827E+07; -0.783055     ; 0.392681     
   9.95352980519E+07; -0.764596     ; 0.424326     
   1.00000000000E+08; -0.744048     ; 0.456116     
