
  ZVR, 2.05

  stimulus-start        ; stimulus-stop       ; stimulus-unit       ; nof-points; parameter-type; impedance-ohm
  9.00000000000E+03     ; 1.00000000000E+08   ; Hz                  ; 2001      ; S11           ; 50        

  conversion            ; time-domain         ; data-format         ; param-unit; smoothing     ; trace-math
  S                     ; none                ; RI                  ; none      ; none          ; none

  sweep-mode-type       ; notlinear-meas-mode 
  FUNDAMENTAL           ; none                


  freq              ;  reS11        ; imS11         
   9.00000000000E+03;  0.943485     ; 0.157131     
   9.04201843582E+03;  0.944842     ; 0.159091     
   9.08423304375E+03;  0.948436     ; 0.158755     
   9.12664473965E+03;  0.951478     ; 0.158507     
   9.16925444368E+03;  0.947822     ; 0.162078     
   9.21206308028E+03;  0.948033     ; 0.15769      
   9.25507157820E+03;  0.948497     ; 0.15436      
   9.29828087055E+03;  0.947399     ; 0.155015     
   9.34169189477E+03;  0.948393     ; 0.154405     
   9.38530559270E+03;  0.948868     ; 0.153924     
   9.42912291056E+03;  0.948831     ; 0.153502     
   9.47314479899E+03;  0.948863     ; 0.153805     
   9.51737221307E+03;  0.950224     ; 0.151986     
   9.56180611235E+03;  0.949429     ; 0.152732     
   9.60644746085E+03;  0.950172     ; 0.151768     
   9.65129722708E+03;  0.95061      ; 0.151809     
   9.69635638410E+03;  0.950053     ; 0.151625     
   9.74162590948E+03;  0.950157     ; 0.150907     
   9.78710678538E+03;  0.950922     ; 0.150836     
   9.83279999853E+03;  0.952294     ; 0.150151     
   9.87870654027E+03;  0.951767     ; 0.150259     
   9.92482740658E+03;  0.953254     ; 0.1486       
   9.97116359807E+03;  0.952519     ; 0.14917      
   1.00177161200E+04;  0.952222     ; 0.147999     
   1.00644859825E+04;  0.9536       ; 0.146948     
   1.01114742001E+04;  0.95396      ; 0.147554     
   1.01586817922E+04;  0.954679     ; 0.147503     
   1.02061097832E+04;  0.954582     ; 0.146638     
   1.02537592020E+04;  0.954771     ; 0.14619      
   1.03016310823E+04;  0.955054     ; 0.145434     
   1.03497264628E+04;  0.955158     ; 0.145135     
   1.03980463870E+04;  0.955561     ; 0.144484     
   1.04465919031E+04;  0.955935     ; 0.14428      
   1.04953640643E+04;  0.955918     ; 0.144461     
   1.05443639289E+04;  0.955858     ; 0.143946     
   1.05935925599E+04;  0.957032     ; 0.143511     
   1.06430510254E+04;  0.959406     ; 0.144622     
   1.06927403983E+04;  0.959483     ; 0.144215     
   1.07426617568E+04;  0.958315     ; 0.142509     
   1.07928161838E+04;  0.95778      ; 0.141031     
   1.08432047676E+04;  0.958034     ; 0.14045      
   1.08938286014E+04;  0.958272     ; 0.140761     
   1.09446887834E+04;  0.959203     ; 0.139754     
   1.09957864171E+04;  0.959032     ; 0.139897     
   1.10471226110E+04;  0.95902      ; 0.138752     
   1.10986984791E+04;  0.959678     ; 0.138063     
   1.11505151402E+04;  0.959983     ; 0.137718     
   1.12025737185E+04;  0.960015     ; 0.137986     
   1.12548753435E+04;  0.960457     ; 0.137031     
   1.13074211498E+04;  0.960746     ; 0.136636     
   1.13602122776E+04;  0.961176     ; 0.136376     
   1.14132498721E+04;  0.961584     ; 0.135769     
   1.14665350840E+04;  0.961586     ; 0.135697     
   1.15200690694E+04;  0.961977     ; 0.135077     
   1.15738529897E+04;  0.962158     ; 0.13462      
   1.16278880118E+04;  0.962926     ; 0.134058     
   1.16821753081E+04;  0.962735     ; 0.133655     
   1.17367160562E+04;  0.963104     ; 0.133249     
   1.17915114396E+04;  0.963542     ; 0.132588     
   1.18465626470E+04;  0.963449     ; 0.132414     
   1.19018708728E+04;  0.963861     ; 0.132079     
   1.19574373170E+04;  0.96422      ; 0.131711     
   1.20132631851E+04;  0.964557     ; 0.130956     
   1.20693496882E+04;  0.964961     ; 0.130655     
   1.21256980432E+04;  0.96474      ; 0.130612     
   1.21823094727E+04;  0.965018     ; 0.129817     
   1.22391852047E+04;  0.965431     ; 0.129379     
   1.22963264734E+04;  0.965953     ; 0.128638     
   1.23537345184E+04;  0.965984     ; 0.128386     
   1.24114105852E+04;  0.966361     ; 0.128016     
   1.24693559251E+04;  0.966718     ; 0.127533     
   1.25275717953E+04;  0.966863     ; 0.127019     
   1.25860594587E+04;  0.967075     ; 0.126737     
   1.26448201845E+04;  0.967529     ; 0.126263     
   1.27038552473E+04;  0.967776     ; 0.125718     
   1.27631659280E+04;  0.967921     ; 0.125342     
   1.28227535134E+04;  0.96807      ; 0.125076     
   1.28826192962E+04;  0.968304     ; 0.124509     
   1.29427645754E+04;  0.968525     ; 0.12419      
   1.30031906557E+04;  0.968701     ; 0.123788     
   1.30638988481E+04;  0.969026     ; 0.123029     
   1.31248904698E+04;  0.96946      ; 0.122833     
   1.31861668440E+04;  0.969533     ; 0.122503     
   1.32477293002E+04;  0.969969     ; 0.1219       
   1.33095791739E+04;  0.970037     ; 0.121301     
   1.33717178070E+04;  0.970245     ; 0.121095     
   1.34341465477E+04;  0.97062      ; 0.120624     
   1.34968667505E+04;  0.970741     ; 0.12016      
   1.35598797759E+04;  0.971091     ; 0.11942      
   1.36231869913E+04;  0.97172      ; 0.120019     
   1.36867897700E+04;  0.974945     ; 0.119741     
   1.37506894919E+04;  0.976514     ; 0.119229     
   1.38148875435E+04;  0.973462     ; 0.119082     
   1.38793853174E+04;  0.973785     ; 0.117761     
   1.39441842131E+04;  0.973541     ; 0.116891     
   1.40092856364E+04;  0.973517     ; 0.116735     
   1.40746909997E+04;  0.97407      ; 0.116661     
   1.41404017219E+04;  0.974342     ; 0.115917     
   1.42064192289E+04;  0.974286     ; 0.115597     
   1.42727449527E+04;  0.974524     ; 0.115195     
   1.43393803325E+04;  0.974908     ; 0.114802     
   1.44063268138E+04;  0.975119     ; 0.114231     
   1.44735858492E+04;  0.975029     ; 0.113758     
   1.45411588979E+04;  0.975799     ; 0.113236     
   1.46090474259E+04;  0.976006     ; 0.112615     
   1.46772529061E+04;  0.975541     ; 0.11252      
   1.47457768182E+04;  0.976001     ; 0.112375     
   1.48146206490E+04;  0.975803     ; 0.111546     
   1.48837858920E+04;  0.976302     ; 0.110853     
   1.49532740478E+04;  0.976687     ; 0.110374     
   1.50230866240E+04;  0.976781     ; 0.110179     
   1.50932251352E+04;  0.976651     ; 0.110014     
   1.51636911032E+04;  0.977131     ; 0.11023      
   1.52344860567E+04;  0.976799     ; 0.109274     
   1.53056115317E+04;  0.977775     ; 0.10896      
   1.53770690712E+04;  0.978184     ; 0.109137     
   1.54488602256E+04;  0.978314     ; 0.108072     
   1.55209865525E+04;  0.978975     ; 0.107131     
   1.55934496167E+04;  0.978807     ; 0.107342     
   1.56662509902E+04;  0.978655     ; 0.107306     
   1.57393922526E+04;  0.977829     ; 0.106034     
   1.58128749908E+04;  0.978537     ; 0.105709     
   1.58867007989E+04;  0.978981     ; 0.105917     
   1.59608712786E+04;  0.979533     ; 0.1046       
   1.60353880393E+04;  0.979502     ; 0.104739     
   1.61102526974E+04;  0.979794     ; 0.104356     
   1.61854668773E+04;  0.979829     ; 0.104052     
   1.62610322108E+04;  0.980376     ; 0.103142     
   1.63369503372E+04;  0.980867     ; 0.10339      
   1.64132229038E+04;  0.979985     ; 0.102536     
   1.64898515653E+04;  0.98036      ; 0.101979     
   1.65668379841E+04;  0.98009      ; 0.10196      
   1.66441838307E+04;  0.981413     ; 0.101435     
   1.67218907829E+04;  0.983197     ; 0.101879     
   1.67999605267E+04;  0.985862     ; 0.104349     
   1.68783947560E+04;  0.982282     ; 0.101046     
   1.69571951723E+04;  0.981028     ; 0.100529     
   1.70363634853E+04;  0.98118      ; 0.100146     
   1.71159014126E+04;  0.981576     ; 0.0992394    
   1.71958106798E+04;  0.981437     ; 0.098962     
   1.72760930207E+04;  0.981493     ; 0.098472     
   1.73567501769E+04;  0.981198     ; 0.09796      
   1.74377838984E+04;  0.981269     ; 0.0980591    
   1.75191959432E+04;  0.981575     ; 0.0973756    
   1.76009880777E+04;  0.981863     ; 0.0970765    
   1.76831620763E+04;  0.982683     ; 0.095872     
   1.77657197220E+04;  0.982334     ; 0.0956739    
   1.78486628058E+04;  0.982361     ; 0.0954657    
   1.79319931272E+04;  0.982482     ; 0.0954199    
   1.80157124941E+04;  0.98312      ; 0.0949698    
   1.80998227229E+04;  0.983431     ; 0.0946373    
   1.81843256384E+04;  0.983276     ; 0.0938747    
   1.82692230739E+04;  0.983208     ; 0.0916867    
   1.83545168714E+04;  0.984187     ; 0.0917261    
   1.84402088813E+04;  0.98433      ; 0.0925506    
   1.85263009628E+04;  0.983688     ; 0.0936436    
   1.86127949837E+04;  0.984148     ; 0.0924005    
   1.86996928205E+04;  0.984144     ; 0.0920657    
   1.87869963586E+04;  0.984295     ; 0.0917909    
   1.88747074920E+04;  0.984405     ; 0.0913613    
   1.89628281237E+04;  0.984437     ; 0.0909775    
   1.90513601656E+04;  0.98479      ; 0.0904619    
   1.91403055383E+04;  0.985062     ; 0.0899195    
   1.92296661716E+04;  0.985042     ; 0.0897923    
   1.93194440042E+04;  0.985374     ; 0.089507     
   1.94096409840E+04;  0.985754     ; 0.0893944    
   1.95002590678E+04;  0.985687     ; 0.0887297    
   1.95913002216E+04;  0.985851     ; 0.0881368    
   1.96827664206E+04;  0.985767     ; 0.0878173    
   1.97746596492E+04;  0.985519     ; 0.0877677    
   1.98669819012E+04;  0.986175     ; 0.0873582    
   1.99597351794E+04;  0.986495     ; 0.0870438    
   2.00529214962E+04;  0.995788     ; 0.0767867    
   2.01465428734E+04;  0.99549      ; 0.0773909    
   2.02406013422E+04;  0.995636     ; 0.0771731    
   2.03350989431E+04;  0.99571      ; 0.0767061    
   2.04300377265E+04;  0.995844     ; 0.0764303    
   2.05254197519E+04;  0.995822     ; 0.0759026    
   2.06212470888E+04;  0.99604      ; 0.0757879    
   2.07175218163E+04;  0.99637      ; 0.0753072    
   2.08142460231E+04;  0.996313     ; 0.075151     
   2.09114218076E+04;  0.996408     ; 0.0748849    
   2.10090512782E+04;  0.996477     ; 0.0746253    
   2.11071365529E+04;  0.996684     ; 0.0742497    
   2.12056797599E+04;  0.997038     ; 0.0740252    
   2.13046830370E+04;  0.996685     ; 0.073962     
   2.14041485322E+04;  0.996793     ; 0.0738897    
   2.15040784035E+04;  0.997315     ; 0.0727392    
   2.16044748189E+04;  0.997419     ; 0.0726223    
   2.17053399565E+04;  0.997253     ; 0.0720625    
   2.18066760047E+04;  0.997681     ; 0.0720387    
   2.19084851621E+04;  0.997762     ; 0.0714849    
   2.20107696374E+04;  0.997868     ; 0.0711961    
   2.21135316497E+04;  0.997625     ; 0.0708309    
   2.22167734287E+04;  0.997885     ; 0.0704462    
   2.23204972141E+04;  0.997884     ; 0.0700273    
   2.24247052562E+04;  0.998045     ; 0.0697985    
   2.25293998161E+04;  0.99811      ; 0.0693281    
   2.26345831650E+04;  0.998478     ; 0.0693302    
   2.27402575850E+04;  0.998457     ; 0.0689406    
   2.28464253688E+04;  0.998484     ; 0.068547     
   2.29530888197E+04;  0.998268     ; 0.0683226    
   2.30602502519E+04;  0.998665     ; 0.0680934    
   2.31679119902E+04;  0.998701     ; 0.0676589    
   2.32760763706E+04;  0.998994     ; 0.0674595    
   2.33847457396E+04;  0.999125     ; 0.0671182    
   2.34939224549E+04;  0.99905      ; 0.0666303    
   2.36036088852E+04;  0.999177     ; 0.0664207    
   2.37138074102E+04;  0.999434     ; 0.0661171    
   2.38245204208E+04;  0.999174     ; 0.0657215    
   2.39357503188E+04;  0.999792     ; 0.0652894    
   2.40474995175E+04;  0.999822     ; 0.0649158    
   2.41597704414E+04;  0.999625     ; 0.0646355    
   2.42725655263E+04;  0.999199     ; 0.0651802    
   2.43858872193E+04;  0.99945      ; 0.0635498    
   2.44997379790E+04;  0.99948      ; 0.0632613    
   2.46141202754E+04;  0.999571     ; 0.0643179    
   2.47290365902E+04;  1.00014      ; 0.062992     
   2.48444894165E+04;  1.00031      ; 0.0626335    
   2.49604812592E+04;  1.00041      ; 0.0624333    
   2.50770146347E+04;  1.00015      ; 0.0623966    
   2.51940920714E+04;  1.00084      ; 0.0617956    
   2.53117161092E+04;  1.00034      ; 0.0617446    
   2.54298893002E+04;  1.00059      ; 0.0614138    
   2.55486142082E+04;  1.0005       ; 0.0610322    
   2.56678934089E+04;  1.0006       ; 0.0609056    
   2.57877294902E+04;  1.00086      ; 0.0604026    
   2.59081250521E+04;  1.00089      ; 0.0599787    
   2.60290827065E+04;  1.00079      ; 0.059936     
   2.61506050777E+04;  1.00097      ; 0.0593437    
   2.62726948023E+04;  1.00113      ; 0.0594858    
   2.63953545290E+04;  1.00127      ; 0.0591264    
   2.65185869190E+04;  1.00133      ; 0.0584876    
   2.66423946460E+04;  1.00151      ; 0.0581475    
   2.67667803959E+04;  1.00154      ; 0.0579216    
   2.68917468675E+04;  1.00164      ; 0.057669     
   2.70172967719E+04;  1.00159      ; 0.0575838    
   2.71434328331E+04;  1.00172      ; 0.0569578    
   2.72701577876E+04;  1.00172      ; 0.0569932    
   2.73974743848E+04;  1.00179      ; 0.0562865    
   2.75253853869E+04;  1.00169      ; 0.0561922    
   2.76538935691E+04;  1.00186      ; 0.0560775    
   2.77830017193E+04;  1.00221      ; 0.0557128    
   2.79127126387E+04;  1.00206      ; 0.0554009    
   2.80430291415E+04;  1.00218      ; 0.0550124    
   2.81739540548E+04;  1.00228      ; 0.0548592    
   2.83054902193E+04;  1.00243      ; 0.0545417    
   2.84376404886E+04;  1.00231      ; 0.0542086    
   2.85704077300E+04;  1.00258      ; 0.0539579    
   2.87037948237E+04;  1.00271      ; 0.0536732    
   2.88378046638E+04;  1.00288      ; 0.053311     
   2.89724401576E+04;  1.00276      ; 0.0531993    
   2.91077042262E+04;  1.00278      ; 0.0527925    
   2.92435998042E+04;  1.0031       ; 0.0524755    
   2.93801298399E+04;  1.00307      ; 0.0521649    
   2.95172972955E+04;  1.00318      ; 0.0520713    
   2.96551051468E+04;  1.00301      ; 0.0517265    
   2.97935563837E+04;  1.00323      ; 0.0514954    
   2.99326540101E+04;  1.00301      ; 0.0511695    
   3.00724010436E+04;  1.00336      ; 0.0510639    
   3.02128005161E+04;  1.00328      ; 0.0505657    
   3.03538554739E+04;  1.00336      ; 0.0503066    
   3.04955689770E+04;  1.00332      ; 0.050046     
   3.06379441001E+04;  1.00354      ; 0.0498114    
   3.07809839321E+04;  1.00345      ; 0.0497058    
   3.09246915763E+04;  1.00464      ; 0.0494832    
   3.10690701505E+04;  1.00371      ; 0.0490589    
   3.12141227872E+04;  1.00386      ; 0.0487745    
   3.13598526333E+04;  1.00383      ; 0.0484642    
   3.15062628506E+04;  1.00402      ; 0.0482995    
   3.16533566154E+04;  1.00388      ; 0.0481381    
   3.18011371191E+04;  1.00406      ; 0.0476879    
   3.19496075679E+04;  1.00408      ; 0.0474858    
   3.20987711829E+04;  1.00416      ; 0.0471477    
   3.22486312004E+04;  1.00435      ; 0.0470246    
   3.23991908715E+04;  1.00417      ; 0.0466779    
   3.25504534629E+04;  1.00425      ; 0.0465556    
   3.27024222562E+04;  1.0041       ; 0.0462927    
   3.28551005485E+04;  1.00445      ; 0.046032     
   3.30084916523E+04;  1.00527      ; 0.0456737    
   3.31625988954E+04;  1.00549      ; 0.0455011    
   3.33174256213E+04;  1.00456      ; 0.0452179    
   3.34729751891E+04;  1.00473      ; 0.0450751    
   3.36292509735E+04;  1.00456      ; 0.0446072    
   3.37862563651E+04;  1.00484      ; 0.0443698    
   3.39439947700E+04;  1.00476      ; 0.0440324    
   3.41024696107E+04;  1.00591      ; 0.0439129    
   3.42616843252E+04;  1.00491      ; 0.0437221    
   3.44216423679E+04;  1.00496      ; 0.0434004    
   3.45823472091E+04;  1.00585      ; 0.043431     
   3.47438023354E+04;  1.00592      ; 0.0431024    
   3.49060112497E+04;  1.00596      ; 0.0427082    
   3.50689774712E+04;  1.00613      ; 0.0424276    
   3.52327045355E+04;  1.00526      ; 0.0423461    
   3.53971959949E+04;  1.0061       ; 0.0420735    
   3.55624554180E+04;  1.0063       ; 0.0419556    
   3.57284863903E+04;  1.00632      ; 0.0415775    
   3.58952925139E+04;  1.00632      ; 0.0413424    
   3.60628774078E+04;  1.00535      ; 0.0410292    
   3.62312447078E+04;  1.00665      ; 0.0409254    
   3.64003980667E+04;  1.00562      ; 0.0408828    
   3.65703411545E+04;  1.00638      ; 0.0408196    
   3.67410776581E+04;  1.00644      ; 0.0402755    
   3.69126112819E+04;  1.00683      ; 0.0400758    
   3.70849457472E+04;  1.00657      ; 0.0395978    
   3.72580847931E+04;  1.00593      ; 0.0395454    
   3.74320321758E+04;  1.00581      ; 0.0389826    
   3.76067916693E+04;  1.00684      ; 0.0391567    
   3.77823670651E+04;  1.00664      ; 0.0389427    
   3.79587621724E+04;  1.00682      ; 0.0386127    
   3.81359808182E+04;  1.00694      ; 0.0382619    
   3.83140268474E+04;  1.00695      ; 0.0382094    
   3.84929041228E+04;  1.00605      ; 0.0379671    
   3.86726165251E+04;  1.00588      ; 0.0379453    
   3.88531679535E+04;  1.00616      ; 0.0376846    
   3.90345623251E+04;  1.00688      ; 0.0372127    
   3.92168035753E+04;  1.00735      ; 0.0369669    
   3.93998956580E+04;  1.00732      ; 0.0366785    
   3.95838425455E+04;  1.00716      ; 0.0365067    
   3.97686482285E+04;  1.00724      ; 0.0364006    
   3.99543167167E+04;  1.00642      ; 0.0363378    
   4.01408520381E+04;  1.00647      ; 0.0359153    
   4.03282582398E+04;  1.00732      ; 0.0358114    
   4.05165393876E+04;  1.0074       ; 0.0354059    
   4.07056995665E+04;  1.00769      ; 0.0352828    
   4.08957428804E+04;  1.0075       ; 0.035196     
   4.10866734523E+04;  1.00753      ; 0.0349596    
   4.12784954247E+04;  1.00753      ; 0.0346764    
   4.14712129592E+04;  1.00659      ; 0.0344495    
   4.16648302370E+04;  1.00752      ; 0.0342016    
   4.18593514587E+04;  1.00764      ; 0.0340603    
   4.20547808446E+04;  1.00769      ; 0.0338413    
   4.22511226346E+04;  1.00769      ; 0.033724     
   4.24483810885E+04;  1.00766      ; 0.0335914    
   4.26465604859E+04;  1.00776      ; 0.0331685    
   4.28456651264E+04;  1.00741      ; 0.0330884    
   4.30456993298E+04;  1.00781      ; 0.0326546    
   4.32466674358E+04;  1.00797      ; 0.0327       
   4.34485738047E+04;  1.00793      ; 0.032419     
   4.36514228170E+04;  1.00812      ; 0.0323536    
   4.38552188734E+04;  1.00792      ; 0.0320373    
   4.40599663956E+04;  1.00799      ; 0.0318094    
   4.42656698256E+04;  1.00822      ; 0.0316358    
   4.44723336264E+04;  1.0072       ; 0.0316142    
   4.46799622815E+04;  1.00722      ; 0.0310003    
   4.48885602957E+04;  1.00814      ; 0.0311396    
   4.50981321946E+04;  1.00815      ; 0.0308136    
   4.53086825250E+04;  1.0082       ; 0.0307086    
   4.55202158548E+04;  1.00819      ; 0.0303221    
   4.57327367735E+04;  1.00855      ; 0.0300913    
   4.59462498919E+04;  1.00825      ; 0.0302661    
   4.61607598421E+04;  1.00819      ; 0.0301011    
   4.63762712782E+04;  1.00813      ; 0.0298909    
   4.65927888758E+04;  1.00831      ; 0.0294442    
   4.68103173324E+04;  1.00852      ; 0.0292346    
   4.70288613674E+04;  1.00828      ; 0.0290738    
   4.72484257222E+04;  1.00879      ; 0.0289931    
   4.74690151604E+04;  1.00835      ; 0.0288024    
   4.76906344678E+04;  1.00764      ; 0.0286352    
   4.79132884527E+04;  1.00766      ; 0.0281885    
   4.81369819455E+04;  1.00864      ; 0.0282414    
   4.83617197996E+04;  1.00867      ; 0.0279233    
   4.85875068907E+04;  1.00875      ; 0.0277919    
   4.88143481173E+04;  1.00883      ; 0.0275711    
   4.90422484011E+04;  1.00876      ; 0.0275258    
   4.92712126863E+04;  1.00857      ; 0.0272185    
   4.95012459405E+04;  1.00859      ; 0.0271734    
   4.97323531545E+04;  1.00872      ; 0.0267524    
   4.99645393422E+04;  1.00876      ; 0.0266476    
   5.01978095410E+04;  1.00866      ; 0.0262101    
   5.04321688120E+04;  1.0091       ; 0.0262904    
   5.06676222396E+04;  1.00904      ; 0.025985     
   5.09041749322E+04;  1.00862      ; 0.0261564    
   5.11418320219E+04;  1.00888      ; 0.0257253    
   5.13805986649E+04;  1.0094       ; 0.0255397    
   5.16204800412E+04;  1.00904      ; 0.0253657    
   5.18614813554E+04;  1.00804      ; 0.0259735    
   5.21036078361E+04;  1.0091       ; 0.0254125    
   5.23468647363E+04;  1.00931      ; 0.0249673    
   5.25912573337E+04;  1.00935      ; 0.0247788    
   5.28367909305E+04;  1.00893      ; 0.0243851    
   5.30834708537E+04;  1.00917      ; 0.0247037    
   5.33313024551E+04;  1.00866      ; 0.0242545    
   5.35802911117E+04;  1.00793      ; 0.024738     
   5.38304422254E+04;  1.00896      ; 0.0246117    
   5.40817612234E+04;  1.00914      ; 0.0241587    
   5.43342535582E+04;  1.00925      ; 0.0243234    
   5.45879247078E+04;  1.00916      ; 0.0238185    
   5.48427801757E+04;  1.00931      ; 0.0233355    
   5.50988254911E+04;  1.00937      ; 0.023386     
   5.53560662092E+04;  1.00959      ; 0.0233597    
   5.56145079109E+04;  1.0094       ; 0.0230123    
   5.58741562033E+04;  1.00923      ; 0.0228259    
   5.61350167196E+04;  1.00912      ; 0.0230946    
   5.63970951193E+04;  1.00883      ; 0.0224296    
   5.66603970884E+04;  1.00951      ; 0.0221891    
   5.69249283393E+04;  1.00994      ; 0.0221883    
   5.71906946113E+04;  1.00982      ; 0.0220795    
   5.74577016703E+04;  1.00939      ; 0.0220802    
   5.77259553092E+04;  1.00901      ; 0.0216725    
   5.79954613480E+04;  1.00953      ; 0.0218063    
   5.82662256336E+04;  1.00944      ; 0.0215441    
   5.85382540405E+04;  1.00877      ; 0.0216839    
   5.88115524706E+04;  1.00918      ; 0.020949     
   5.90861268531E+04;  1.0098       ; 0.021006     
   5.93619831452E+04;  1.00939      ; 0.0211717    
   5.96391273318E+04;  1.00951      ; 0.0208421    
   5.99175654256E+04;  1.00948      ; 0.020561     
   6.01973034675E+04;  1.00981      ; 0.0205522    
   6.04783475267E+04;  1.00969      ; 0.0200524    
   6.07607037005E+04;  1.00955      ; 0.0201545    
   6.10443781148E+04;  1.00979      ; 0.0199444    
   6.13293769242E+04;  1.00922      ; 0.0193419    
   6.16157063117E+04;  1.00938      ; 0.0197157    
   6.19033724897E+04;  1.00934      ; 0.0191331    
   6.21923816990E+04;  1.01017      ; 0.019379     
   6.24827402100E+04;  1.00973      ; 0.0186735    
   6.27744543222E+04;  1.00956      ; 0.0187361    
   6.30675303644E+04;  1.0099       ; 0.0184256    
   6.33619746952E+04;  1.00968      ; 0.0187265    
   6.36577937027E+04;  1.00968      ; 0.0178871    
   6.39549938048E+04;  1.00984      ; 0.0178303    
   6.42535814495E+04;  1.01036      ; 0.0176505    
   6.45535631149E+04;  1.01008      ; 0.0176368    
   6.48549453092E+04;  1.0101       ; 0.0172571    
   6.51577345711E+04;  1.01015      ; 0.0177458    
   6.54619374698E+04;  1.00986      ; 0.0174716    
   6.57675606052E+04;  1.00975      ; 0.0175304    
   6.60746106079E+04;  1.00898      ; 0.0167871    
   6.63830941396E+04;  1.00973      ; 0.0166144    
   6.66930178930E+04;  1.01027      ; 0.0167129    
   6.70043885922E+04;  1.00992      ; 0.0167991    
   6.73172129924E+04;  1.00984      ; 0.0168705    
   6.76314978806E+04;  1.01011      ; 0.0163581    
   6.79472500754E+04;  1.00997      ; 0.0158406    
   6.82644764272E+04;  1.00892      ; 0.01564      
   6.85831838185E+04;  1.01018      ; 0.0158498    
   6.89033791638E+04;  1.0101       ; 0.0156913    
   6.92250694099E+04;  1.01003      ; 0.015339     
   6.95482615362E+04;  1.00988      ; 0.0153639    
   6.98729625544E+04;  1.0102       ; 0.0158932    
   7.01991795091E+04;  1.01037      ; 0.0150855    
   7.05269194779E+04;  1.00942      ; 0.0159152    
   7.08561895712E+04;  1.01014      ; 0.0147038    
   7.11869969328E+04;  1.01075      ; 0.0149403    
   7.15193487397E+04;  1.01038      ; 0.0149996    
   7.18532522024E+04;  1.01067      ; 0.0141575    
   7.21887145654E+04;  1.01054      ; 0.0140563    
   7.25257431065E+04;  1.01028      ; 0.0147534    
   7.28643451378E+04;  1.0107       ; 0.0136666    
   7.32045280056E+04;  1.01112      ; 0.0141666    
   7.35462990902E+04;  1.00934      ; 0.0140786    
   7.38896658067E+04;  1.0096       ; 0.0143723    
   7.42346356045E+04;  1.01022      ; 0.0132701    
   7.45812159681E+04;  1.01033      ; 0.0137931    
   7.49294144166E+04;  1.00994      ; 0.0135438    
   7.52792385045E+04;  1.01022      ; 0.0126105    
   7.56306958213E+04;  1.01022      ; 0.0131738    
   7.59837939923E+04;  1.01003      ; 0.0124698    
   7.63385406780E+04;  1.01019      ; 0.0132101    
   7.66949435749E+04;  1.01061      ; 0.0129946    
   7.70530104154E+04;  1.01041      ; 0.0123254    
   7.74127489679E+04;  1.0104       ; 0.0121636    
   7.77741670373E+04;  1.01049      ; 0.0119015    
   7.81372724647E+04;  1.01039      ; 0.0120702    
   7.85020731278E+04;  1.01038      ; 0.0121454    
   7.88685769413E+04;  1.01056      ; 0.0117053    
   7.92367918567E+04;  1.01066      ; 0.0117255    
   7.96067258626E+04;  1.01049      ; 0.0118639    
   7.99783869850E+04;  1.01047      ; 0.011069     
   8.03517832873E+04;  1.01037      ; 0.011452     
   8.07269228706E+04;  1.01081      ; 0.0114016    
   8.11038138737E+04;  1.01026      ; 0.0109735    
   8.14824644734E+04;  1.01049      ; 0.0109268    
   8.18628828850E+04;  1.01078      ; 0.0110473    
   8.22450773618E+04;  1.01082      ; 0.0106292    
   8.26290561956E+04;  1.01046      ; 0.010598     
   8.30148277173E+04;  1.01045      ; 0.0106739    
   8.34024002962E+04;  1.01065      ; 0.0103552    
   8.37917823411E+04;  1.01055      ; 0.0103403    
   8.41829822999E+04;  1.01054      ; 0.0102192    
   8.45760086598E+04;  1.0103       ; 0.00967412   
   8.49708699478E+04;  1.01064      ; 0.0100837    
   8.53675747306E+04;  1.01037      ; 0.00969987   
   8.57661316150E+04;  1.01016      ; 0.00945997   
   8.61665492480E+04;  1.00951      ; 0.00929384   
   8.65688363169E+04;  1.00991      ; 0.00956014   
   8.69730015494E+04;  1.00976      ; 0.00915723   
   8.73790537143E+04;  1.00973      ; 0.00902301   
   8.77870016210E+04;  1.01016      ; 0.00904113   
   8.81968541203E+04;  1.00994      ; 0.00884804   
   8.86086201041E+04;  1.00987      ; 0.0087256    
   8.90223085060E+04;  1.00997      ; 0.00840928   
   8.94379283012E+04;  1.00982      ; 0.00844312   
   8.98554885068E+04;  1.01011      ; 0.00848426   
   9.02749981820E+04;  1.00998      ; 0.00795957   
   9.06964664284E+04;  1.00994      ; 0.00827532   
   9.11199023900E+04;  1.01026      ; 0.00794384   
   9.15453152534E+04;  1.01         ; 0.00817131   
   9.19727142482E+04;  1.01037      ; 0.00749287   
   9.24021086472E+04;  1.01084      ; 0.00752892   
   9.28335077663E+04;  1.01047      ; 0.0075434    
   9.32669209650E+04;  1.01049      ; 0.00719433   
   9.37023576464E+04;  1.00953      ; 0.00734647   
   9.41398272577E+04;  1.00985      ; 0.00707425   
   9.45793392899E+04;  1.00998      ; 0.00727937   
   9.50209032786E+04;  1.01015      ; 0.00718077   
   9.54645288037E+04;  1.0097       ; 0.00711392   
   9.59102254900E+04;  1.01005      ; 0.00660464   
   9.63580030071E+04;  1.01056      ; 0.00632645   
   9.68078710699E+04;  1.01072      ; 0.00664356   
   9.72598394386E+04;  1.01078      ; 0.00631343   
   9.77139179187E+04;  1.01068      ; 0.00587937   
   9.81701163619E+04;  1.01076      ; 0.00600195   
   9.86284446657E+04;  1.01103      ; 0.00566214   
   9.90889127738E+04;  1.01036      ; 0.00579603   
   9.95515306762E+04;  1.01033      ; 0.00542527   
   1.00016308410E+05;  1.00987      ; 0.00565432   
   1.00483256058E+05;  1.0105       ; 0.00561227   
   1.00952383752E+05;  1.01001      ; 0.00525819   
   1.01423701670E+05;  1.01086      ; 0.0054054    
   1.01897220036E+05;  1.00997      ; 0.00466067   
   1.02372949125E+05;  1.01036      ; 0.00513949   
   1.02850899258E+05;  1.01041      ; 0.00479971   
   1.03331080803E+05;  1.01003      ; 0.00471507   
   1.03813504180E+05;  1.01013      ; 0.00480145   
   1.04298179853E+05;  1.00977      ; 0.00466642   
   1.04785118340E+05;  1.01048      ; 0.00455076   
   1.05274330203E+05;  1.01038      ; 0.00454995   
   1.05765826057E+05;  1.01069      ; 0.00417536   
   1.06259616565E+05;  1.01033      ; 0.00421847   
   1.06755712441E+05;  1.01021      ; 0.00392164   
   1.07254124447E+05;  1.01045      ; 0.00365946   
   1.07754863396E+05;  1.01035      ; 0.00408427   
   1.08257940153E+05;  1.01044      ; 0.00380394   
   1.08763365632E+05;  1.00995      ; 0.0036284    
   1.09271150798E+05;  1.01037      ; 0.00340731   
   1.09781306669E+05;  1.01051      ; 0.0031065    
   1.10293844312E+05;  1.01029      ; 0.00289026   
   1.10808774848E+05;  1.01023      ; 0.00281456   
   1.11326109447E+05;  1.00943      ; 0.00277063   
   1.11845859334E+05;  1.01028      ; 0.00300358   
   1.12368035786E+05;  1.01019      ; 0.00292976   
   1.12892650130E+05;  1.01037      ; 0.00268556   
   1.13419713749E+05;  1.01042      ; 0.00235881   
   1.13949238079E+05;  1.01089      ; 0.00242248   
   1.14481234606E+05;  1.01104      ; 0.00210494   
   1.15015714874E+05;  1.01086      ; 0.00211294   
   1.15552690478E+05;  1.01134      ; 0.00227244   
   1.16092173067E+05;  1.0109       ; 0.00185712   
   1.16634174348E+05;  1.01052      ; 0.0018525    
   1.17178706078E+05;  1.01049      ; 0.00159486   
   1.17725780071E+05;  1.01035      ; 0.00168189   
   1.18275408197E+05;  1.0102       ; 0.00142685   
   1.18827602380E+05;  1.01019      ; 0.00128412   
   1.19382374601E+05;  1.01105      ; 0.00144973   
   1.19939736895E+05;  1.01133      ; 0.00100486   
   1.20499701355E+05;  1.01111      ; 0.000797629  
   1.21062280129E+05;  1.01087      ; 0.000965014  
   1.21627485423E+05;  1.01053      ; 0.000997655  
   1.22195329500E+05;  1.01072      ; 0.000630617  
   1.22765824679E+05;  1.01028      ; 0.000361182  
   1.23338983337E+05;  1.01021      ; 0.000637688  
   1.23914817910E+05;  1.01066      ; 0.000356212  
   1.24493340890E+05;  1.01058      ; 0.000354804  
   1.25074564830E+05;  1.01118      ; 0.000346661  
   1.25658502338E+05;  1.01077      ; 1.52811E-05  
   1.26245166084E+05;  1.01044      ; 4.04567E-06  
   1.26834568796E+05;  1.01051      ;-0.000131458  
   1.27426723262E+05;  1.01021      ;-0.000504702  
   1.28021642328E+05;  1.01098      ;-0.000636734  
   1.28619338901E+05;  1.01073      ;-0.000545785  
   1.29219825950E+05;  1.01053      ;-0.00057672   
   1.29823116501E+05;  1.01045      ;-0.000889778  
   1.30429223644E+05;  1.01084      ;-0.00088907   
   1.31038160529E+05;  1.01032      ;-0.00110197   
   1.31649940367E+05;  1.0109       ;-0.00109963   
   1.32264576430E+05;  1.01092      ;-0.00116271   
   1.32882082054E+05;  1.01089      ;-0.00141241   
   1.33502470636E+05;  1.01055      ;-0.00163405   
   1.34125755635E+05;  1.01068      ;-0.00180566   
   1.34751950575E+05;  1.0105       ;-0.00215711   
   1.35381069040E+05;  1.01047      ;-0.00236221   
   1.36013124680E+05;  1.00959      ;-0.00210308   
   1.36648131208E+05;  1.00977      ;-0.00157032   
   1.37286102400E+05;  1.00969      ;-0.00144251   
   1.37927052099E+05;  1.00991      ;-0.00188603   
   1.38570994208E+05;  1.0096       ;-0.00186865   
   1.39217942700E+05;  1.01019      ;-0.00212219   
   1.39867911610E+05;  1.01021      ;-0.00115975   
   1.40520915040E+05;  1.01106      ;-0.00122504   
   1.41176967156E+05;  1.01017      ;-0.0019524    
   1.41836082194E+05;  1.0113       ;-0.0018675    
   1.42498274451E+05;  1.01186      ;-0.00204144   
   1.43163558295E+05;  1.01006      ;-0.00247713   
   1.43831948161E+05;  1.01115      ;-0.00211722   
   1.44503458548E+05;  1.01079      ;-0.00212295   
   1.45178104025E+05;  1.01036      ;-0.00372741   
   1.45855899230E+05;  1.01008      ;-0.00315069   
   1.46536858868E+05;  1.01008      ;-0.00462054   
   1.47220997713E+05;  1.01077      ;-0.00243815   
   1.47908330606E+05;  1.01169      ;-0.00269036   
   1.48598872462E+05;  1.01067      ;-0.00362978   
   1.49292638260E+05;  1.01196      ;-0.00256886   
   1.49989643053E+05;  1.01077      ;-0.00303915   
   1.50689901963E+05;  1.01137      ;-0.00461196   
   1.51393430183E+05;  1.01042      ;-0.00465985   
   1.52100242975E+05;  1.01134      ;-0.00462597   
   1.52810355675E+05;  1.01051      ;-0.00434726   
   1.53523783688E+05;  1.01061      ;-0.00467265   
   1.54240542494E+05;  1.01166      ;-0.00461484   
   1.54960647643E+05;  1.01168      ;-0.00492488   
   1.55684114757E+05;  1.01187      ;-0.00465785   
   1.56410959533E+05;  1.0109       ;-0.00519431   
   1.57141197740E+05;  1.01077      ;-0.00499602   
   1.57874845221E+05;  1.0111       ;-0.00507859   
   1.58611917894E+05;  1.01133      ;-0.00505079   
   1.59352431749E+05;  1.01129      ;-0.00536279   
   1.60096402852E+05;  1.01096      ;-0.00577263   
   1.60843847344E+05;  1.01107      ;-0.00550947   
   1.61594781441E+05;  1.01124      ;-0.00563391   
   1.62349221436E+05;  1.01141      ;-0.00556104   
   1.63107183696E+05;  1.01108      ;-0.00563694   
   1.63868684666E+05;  1.01117      ;-0.0058592    
   1.64633740867E+05;  1.01141      ;-0.00623437   
   1.65402368898E+05;  1.01117      ;-0.00638229   
   1.66174585433E+05;  1.01135      ;-0.00636439   
   1.66950407228E+05;  1.01124      ;-0.00651725   
   1.67729851114E+05;  1.01137      ;-0.00652234   
   1.68512934001E+05;  1.01178      ;-0.00650753   
   1.69299672879E+05;  1.01134      ;-0.006984     
   1.70090084817E+05;  1.01131      ;-0.00678423   
   1.70884186963E+05;  1.01154      ;-0.00717612   
   1.71681996545E+05;  1.01137      ;-0.00705644   
   1.72483530873E+05;  1.01143      ;-0.00712112   
   1.73288807337E+05;  1.01141      ;-0.00724627   
   1.74097843407E+05;  1.01184      ;-0.00734406   
   1.74910656636E+05;  1.01146      ;-0.00763429   
   1.75727264658E+05;  1.01115      ;-0.00776295   
   1.76547685191E+05;  1.01157      ;-0.0080218    
   1.77371936033E+05;  1.01174      ;-0.00816307   
   1.78200035067E+05;  1.01171      ;-0.00800743   
   1.79032000260E+05;  1.01167      ;-0.00834376   
   1.79867849662E+05;  1.01186      ;-0.00822351   
   1.80707601406E+05;  1.01143      ;-0.00849971   
   1.81551273712E+05;  1.0113       ;-0.00868508   
   1.82398884883E+05;  1.01158      ;-0.00851041   
   1.83250453310E+05;  1.01169      ;-0.00894324   
   1.84105997466E+05;  1.01187      ;-0.00880827   
   1.84965535915E+05;  1.01149      ;-0.00901207   
   1.85829087304E+05;  1.01195      ;-0.00902689   
   1.86696670368E+05;  1.01127      ;-0.00949966   
   1.87568303931E+05;  1.01166      ;-0.00952605   
   1.88444006902E+05;  1.01152      ;-0.00946438   
   1.89323798281E+05;  1.01189      ;-0.00976      
   1.90207697155E+05;  1.01177      ;-0.00948921   
   1.91095722701E+05;  1.01115      ;-0.0101111    
   1.91987894186E+05;  1.01162      ;-0.00947201   
   1.92884230965E+05;  1.01164      ;-0.0103682    
   1.93784752485E+05;  1.01165      ;-0.0101789    
   1.94689478283E+05;  1.01149      ;-0.0105366    
   1.95598427988E+05;  1.01123      ;-0.0104467    
   1.96511621321E+05;  1.01159      ;-0.0106926    
   1.97429078093E+05;  1.01177      ;-0.0107444    
   1.98350818209E+05;  1.01175      ;-0.0113005    
   1.99276861668E+05;  1.01168      ;-0.01115      
   2.00207228559E+05;  1.01173      ;-0.011259     
   2.01141939068E+05;  1.01244      ;-0.0112228    
   2.02081013475E+05;  1.01205      ;-0.011574     
   2.03024472152E+05;  1.01193      ;-0.0111426    
   2.03972335569E+05;  1.01185      ;-0.0113471    
   2.04924624290E+05;  1.01215      ;-0.0120978    
   2.05881358976E+05;  1.01175      ;-0.0120866    
   2.06842560384E+05;  1.01185      ;-0.0120136    
   2.07808249367E+05;  1.01213      ;-0.0119703    
   2.08778446877E+05;  1.01176      ;-0.0123063    
   2.09753173963E+05;  1.01222      ;-0.0122462    
   2.10732451772E+05;  1.01192      ;-0.0125761    
   2.11716301549E+05;  1.01209      ;-0.0128899    
   2.12704744642E+05;  1.01195      ;-0.0126762    
   2.13697802493E+05;  1.0118       ;-0.0125288    
   2.14695496648E+05;  1.01213      ;-0.0132173    
   2.15697848754E+05;  1.01209      ;-0.0133045    
   2.16704880555E+05;  1.01246      ;-0.0134814    
   2.17716613901E+05;  1.01202      ;-0.0134057    
   2.18733070742E+05;  1.01226      ;-0.0137871    
   2.19754273131E+05;  1.01264      ;-0.013921     
   2.20780243222E+05;  1.01291      ;-0.013838     
   2.21811003275E+05;  1.01233      ;-0.0138176    
   2.22846575654E+05;  1.0121       ;-0.0141163    
   2.23886982825E+05;  1.01266      ;-0.0144017    
   2.24932247360E+05;  1.01224      ;-0.01411      
   2.25982391938E+05;  1.0123       ;-0.0144984    
   2.27037439341E+05;  1.01231      ;-0.0148726    
   2.28097412461E+05;  1.01259      ;-0.0146338    
   2.29162334293E+05;  1.01217      ;-0.0150508    
   2.30232227941E+05;  1.01198      ;-0.0153683    
   2.31307116618E+05;  1.01247      ;-0.0152553    
   2.32387023644E+05;  1.01233      ;-0.0153072    
   2.33471972449E+05;  1.01263      ;-0.0155463    
   2.34561986570E+05;  1.01247      ;-0.0158423    
   2.35657089656E+05;  1.01264      ;-0.0158945    
   2.36757305467E+05;  1.01247      ;-0.01616      
   2.37862657872E+05;  1.01261      ;-0.0162547    
   2.38973170853E+05;  1.01255      ;-0.0163519    
   2.40088868502E+05;  1.01283      ;-0.0164242    
   2.41209775025E+05;  1.01251      ;-0.0166671    
   2.42335914742E+05;  1.01266      ;-0.0165917    
   2.43467312084E+05;  1.01226      ;-0.0167776    
   2.44603991599E+05;  1.01242      ;-0.0170095    
   2.45745977946E+05;  1.01249      ;-0.0173913    
   2.46893295901E+05;  1.01276      ;-0.0174137    
   2.48045970358E+05;  1.01254      ;-0.0171787    
   2.49204026323E+05;  1.01256      ;-0.0172838    
   2.50367488922E+05;  1.01283      ;-0.0178183    
   2.51536383396E+05;  1.01243      ;-0.0181103    
   2.52710735105E+05;  1.01253      ;-0.0179253    
   2.53890569527E+05;  1.01293      ;-0.0182433    
   2.55075912261E+05;  1.01271      ;-0.0186235    
   2.56266789022E+05;  1.01263      ;-0.018279     
   2.57463225647E+05;  1.01233      ;-0.0187579    
   2.58665248094E+05;  1.01253      ;-0.019078     
   2.59872882442E+05;  1.01275      ;-0.0191385    
   2.61086154890E+05;  1.01263      ;-0.0192942    
   2.62305091761E+05;  1.01287      ;-0.0192854    
   2.63529719502E+05;  1.01283      ;-0.0196432    
   2.64760064680E+05;  1.01267      ;-0.0197179    
   2.65996153990E+05;  1.01271      ;-0.0199107    
   2.67238014248E+05;  1.01241      ;-0.0199854    
   2.68485672398E+05;  1.01273      ;-0.0199897    
   2.69739155508E+05;  1.01283      ;-0.0206484    
   2.70998490774E+05;  1.01292      ;-0.0201852    
   2.72263705518E+05;  1.01246      ;-0.0209094    
   2.73534827189E+05;  1.01264      ;-0.0206238    
   2.74811883365E+05;  1.01273      ;-0.0209401    
   2.76094901752E+05;  1.01271      ;-0.0212761    
   2.77383910186E+05;  1.01272      ;-0.0211353    
   2.78678936634E+05;  1.01271      ;-0.0214688    
   2.79980009191E+05;  1.01281      ;-0.0213468    
   2.81287156085E+05;  1.01226      ;-0.0217259    
   2.82600405676E+05;  1.01263      ;-0.0216424    
   2.83919786454E+05;  1.01276      ;-0.0222508    
   2.85245327046E+05;  1.01271      ;-0.0220357    
   2.86577056209E+05;  1.01279      ;-0.0220205    
   2.87915002836E+05;  1.01255      ;-0.0228545    
   2.89259195955E+05;  1.01293      ;-0.0226727    
   2.90609664728E+05;  1.01259      ;-0.0230781    
   2.91966438456E+05;  1.01237      ;-0.0231311    
   2.93329546573E+05;  1.01288      ;-0.0234331    
   2.94699018654E+05;  1.01256      ;-0.0233259    
   2.96074884410E+05;  1.01269      ;-0.0235903    
   2.97457173691E+05;  1.01234      ;-0.0238325    
   2.98845916487E+05;  1.01241      ;-0.0235391    
   3.00241142927E+05;  1.01261      ;-0.0240458    
   3.01642883282E+05;  1.01245      ;-0.0242908    
   3.03051167963E+05;  1.01247      ;-0.024161     
   3.04466027525E+05;  1.01233      ;-0.0244439    
   3.05887492662E+05;  1.01259      ;-0.0243186    
   3.07315594215E+05;  1.01246      ;-0.024983     
   3.08750363168E+05;  1.01248      ;-0.025169     
   3.10191830648E+05;  1.01256      ;-0.0251817    
   3.11640027929E+05;  1.01253      ;-0.0255223    
   3.13094986430E+05;  1.0125       ;-0.0257       
   3.14556737718E+05;  1.01272      ;-0.0259526    
   3.16025313507E+05;  1.01257      ;-0.0255846    
   3.17500745657E+05;  1.01272      ;-0.0257608    
   3.18983066180E+05;  1.01221      ;-0.0259705    
   3.20472307235E+05;  1.01228      ;-0.0259971    
   3.21968501132E+05;  1.01186      ;-0.0266713    
   3.23471680332E+05;  1.01243      ;-0.0265905    
   3.24981877448E+05;  1.01238      ;-0.0265993    
   3.26499125243E+05;  1.01208      ;-0.0268666    
   3.28023456637E+05;  1.0126       ;-0.0269095    
   3.29554904699E+05;  1.01221      ;-0.027567     
   3.31093502656E+05;  1.01247      ;-0.0274254    
   3.32639283888E+05;  1.01197      ;-0.0275018    
   3.34192281933E+05;  1.01213      ;-0.0277416    
   3.35752530483E+05;  1.01236      ;-0.0275129    
   3.37320063389E+05;  1.01215      ;-0.0280756    
   3.38894914659E+05;  1.0122       ;-0.0281235    
   3.40477118462E+05;  1.01209      ;-0.0283954    
   3.42066709123E+05;  1.01217      ;-0.0286278    
   3.43663721130E+05;  1.01228      ;-0.0285678    
   3.45268189131E+05;  1.01202      ;-0.0288083    
   3.46880147937E+05;  1.01242      ;-0.0289026    
   3.48499632518E+05;  1.01206      ;-0.0290734    
   3.50126678012E+05;  1.01221      ;-0.0293476    
   3.51761319717E+05;  1.01221      ;-0.0292083    
   3.53403593099E+05;  1.01229      ;-0.0298158    
   3.55053533788E+05;  1.0123       ;-0.0299669    
   3.56711177579E+05;  1.01189      ;-0.0301003    
   3.58376560437E+05;  1.01178      ;-0.0302029    
   3.60049718493E+05;  1.01166      ;-0.0306752    
   3.61730688047E+05;  1.01207      ;-0.0304889    
   3.63419505570E+05;  1.01217      ;-0.0303152    
   3.65116207700E+05;  1.01203      ;-0.0309809    
   3.66820831249E+05;  1.01224      ;-0.0307145    
   3.68533413199E+05;  1.01204      ;-0.0311704    
   3.70253990707E+05;  1.01164      ;-0.0312669    
   3.71982601101E+05;  1.01202      ;-0.0316845    
   3.73719281885E+05;  1.01202      ;-0.0319845    
   3.75464070736E+05;  1.01189      ;-0.0316063    
   3.77217005509E+05;  1.012        ;-0.0315796    
   3.78978124235E+05;  1.01182      ;-0.0319733    
   3.80747465123E+05;  1.01172      ;-0.0322515    
   3.82525066560E+05;  1.01209      ;-0.032464     
   3.84310967111E+05;  1.01197      ;-0.0325057    
   3.86105205523E+05;  1.01186      ;-0.0327993    
   3.87907820723E+05;  1.01182      ;-0.0329613    
   3.89718851819E+05;  1.01158      ;-0.0334245    
   3.91538338104E+05;  1.01174      ;-0.0333241    
   3.93366319052E+05;  1.0115       ;-0.0338741    
   3.95202834322E+05;  1.01177      ;-0.0335752    
   3.97047923759E+05;  1.01187      ;-0.0335925    
   3.98901627392E+05;  1.01181      ;-0.0338971    
   4.00763985440E+05;  1.01165      ;-0.0343437    
   4.02635038307E+05;  1.01144      ;-0.0346362    
   4.04514826587E+05;  1.01193      ;-0.0344307    
   4.06403391062E+05;  1.01196      ;-0.0346737    
   4.08300772707E+05;  1.01204      ;-0.034683     
   4.10207012686E+05;  1.01144      ;-0.0351701    
   4.12122152357E+05;  1.01144      ;-0.0354219    
   4.14046233269E+05;  1.01153      ;-0.0353464    
   4.15979297167E+05;  1.01149      ;-0.0358166    
   4.17921385989E+05;  1.01134      ;-0.0357849    
   4.19872541871E+05;  1.01151      ;-0.0357149    
   4.21832807144E+05;  1.01167      ;-0.0362496    
   4.23802224337E+05;  1.01125      ;-0.0361181    
   4.25780836177E+05;  1.01121      ;-0.0363564    
   4.27768685592E+05;  1.01168      ;-0.0366471    
   4.29765815710E+05;  1.01163      ;-0.0371727    
   4.31772269860E+05;  1.01143      ;-0.0372148    
   4.33788091572E+05;  1.01184      ;-0.0372315    
   4.35813324582E+05;  1.01159      ;-0.0372604    
   4.37848012827E+05;  1.01116      ;-0.0375606    
   4.39892200452E+05;  1.01161      ;-0.0377567    
   4.41945931807E+05;  1.01145      ;-0.0379302    
   4.44009251449E+05;  1.01131      ;-0.0376385    
   4.46082204141E+05;  1.01139      ;-0.038011     
   4.48164834860E+05;  1.01137      ;-0.0384454    
   4.50257188788E+05;  1.01144      ;-0.038267     
   4.52359311320E+05;  1.01125      ;-0.0386949    
   4.54471248063E+05;  1.01113      ;-0.0390451    
   4.56593044838E+05;  1.01121      ;-0.0391991    
   4.58724747677E+05;  1.0113       ;-0.0393621    
   4.60866402829E+05;  1.01127      ;-0.0396       
   4.63018056759E+05;  1.01126      ;-0.0398903    
   4.65179756148E+05;  1.0112       ;-0.0399297    
   4.67351547896E+05;  1.01106      ;-0.0403013    
   4.69533479120E+05;  1.01131      ;-0.0404687    
   4.71725597160E+05;  1.01115      ;-0.0405171    
   4.73927949575E+05;  1.0113       ;-0.040631     
   4.76140584145E+05;  1.01113      ;-0.0409033    
   4.78363548876E+05;  1.01084      ;-0.0409772    
   4.80596891996E+05;  1.01093      ;-0.0413569    
   4.82840661958E+05;  1.01108      ;-0.0415169    
   4.85094907443E+05;  1.01131      ;-0.0415328    
   4.87359677358E+05;  1.01083      ;-0.0417974    
   4.89635020839E+05;  1.01117      ;-0.041849     
   4.91920987250E+05;  1.01106      ;-0.042172     
   4.94217626187E+05;  1.01094      ;-0.0428512    
   4.96524987477E+05;  1.01116      ;-0.0426436    
   4.98843121179E+05;  1.01099      ;-0.0427363    
   5.01172077587E+05;  1.01086      ;-0.0429192    
   5.03511907229E+05;  1.01086      ;-0.0432429    
   5.05862660869E+05;  1.0109       ;-0.0437094    
   5.08224389508E+05;  1.01096      ;-0.0437821    
   5.10597144385E+05;  1.01082      ;-0.043846     
   5.12980976978E+05;  1.01092      ;-0.0440801    
   5.15375939007E+05;  1.01105      ;-0.0445358    
   5.17782082431E+05;  1.01078      ;-0.0446543    
   5.20199459453E+05;  1.01086      ;-0.0444226    
   5.22628122520E+05;  1.01073      ;-0.04503      
   5.25068124323E+05;  1.01116      ;-0.0449395    
   5.27519517799E+05;  1.01092      ;-0.0453423    
   5.29982356133E+05;  1.01077      ;-0.0458682    
   5.32456692757E+05;  1.01103      ;-0.0454275    
   5.34942581354E+05;  1.01072      ;-0.0460207    
   5.37440075856E+05;  1.01081      ;-0.0459981    
   5.39949230449E+05;  1.01103      ;-0.0462891    
   5.42470099570E+05;  1.01084      ;-0.0467365    
   5.45002737910E+05;  1.0108       ;-0.0466975    
   5.47547200417E+05;  1.01057      ;-0.0469949    
   5.50103542295E+05;  1.01065      ;-0.0469646    
   5.52671819005E+05;  1.01064      ;-0.047607     
   5.55252086267E+05;  1.01079      ;-0.0475163    
   5.57844400061E+05;  1.01097      ;-0.0479591    
   5.60448816631E+05;  1.01077      ;-0.0484109    
   5.63065392479E+05;  1.01058      ;-0.0485533    
   5.65694184374E+05;  1.01054      ;-0.048705     
   5.68335249350E+05;  1.01098      ;-0.0488483    
   5.70988644705E+05;  1.01066      ;-0.0490672    
   5.73654428008E+05;  1.01068      ;-0.049215     
   5.76332657093E+05;  1.01058      ;-0.0493717    
   5.79023390067E+05;  1.01047      ;-0.0500795    
   5.81726685306E+05;  1.01058      ;-0.0497209    
   5.84442601461E+05;  1.01076      ;-0.049892     
   5.87171197454E+05;  1.01062      ;-0.050459     
   5.89912532485E+05;  1.01087      ;-0.0504759    
   5.92666666028E+05;  1.01033      ;-0.0508335    
   5.95433657835E+05;  1.01066      ;-0.0511339    
   5.98213567940E+05;  1.01036      ;-0.051249     
   6.01006456652E+05;  1.01012      ;-0.0516851    
   6.03812384566E+05;  1.01046      ;-0.0519213    
   6.06631412558E+05;  1.01032      ;-0.0518437    
   6.09463601789E+05;  1.01058      ;-0.0527683    
   6.12309013704E+05;  1.01044      ;-0.0524161    
   6.15167710037E+05;  1.01021      ;-0.0528362    
   6.18039752809E+05;  1.01042      ;-0.0531585    
   6.20925204330E+05;  1.01018      ;-0.0535491    
   6.23824127202E+05;  1.01025      ;-0.0536239    
   6.26736584319E+05;  1.01         ;-0.0539496    
   6.29662638868E+05;  1.01031      ;-0.0538783    
   6.32602354333E+05;  1.0104       ;-0.0542579    
   6.35555794491E+05;  1.01005      ;-0.0547798    
   6.38523023420E+05;  1.01014      ;-0.0548151    
   6.41504105496E+05;  1.01032      ;-0.055433     
   6.44499105394E+05;  1.01028      ;-0.055526     
   6.47508088094E+05;  1.01018      ;-0.0555928    
   6.50531118876E+05;  1.01022      ;-0.055906     
   6.53568263328E+05;  1.00984      ;-0.0559993    
   6.56619587343E+05;  1.01013      ;-0.0564527    
   6.59685157119E+05;  1.00979      ;-0.0569794    
   6.62765039168E+05;  1.01009      ;-0.0567208    
   6.65859300308E+05;  1.00991      ;-0.0574877    
   6.68968007672E+05;  1.01016      ;-0.0575029    
   6.72091228705E+05;  1.01001      ;-0.057853     
   6.75229031167E+05;  1.00978      ;-0.0581318    
   6.78381483135E+05;  1.00961      ;-0.0585709    
   6.81548653003E+05;  1.00989      ;-0.0586604    
   6.84730609485E+05;  1.01008      ;-0.0587843    
   6.87927421615E+05;  1.0095       ;-0.0592638    
   6.91139158750E+05;  1.00988      ;-0.0595151    
   6.94365890570E+05;  1.00981      ;-0.0596796    
   6.97607687083E+05;  1.00959      ;-0.0601948    
   7.00864618619E+05;  1.00999      ;-0.0600275    
   7.04136755841E+05;  1.00977      ;-0.0608695    
   7.07424169739E+05;  1.00997      ;-0.0609772    
   7.10726931637E+05;  1.00989      ;-0.0612235    
   7.14045113188E+05;  1.00972      ;-0.061417     
   7.17378786384E+05;  1.00996      ;-0.0618358    
   7.20728023550E+05;  1.00973      ;-0.062247     
   7.24092897350E+05;  1.00976      ;-0.0625147    
   7.27473480788E+05;  1.00948      ;-0.0629224    
   7.30869847206E+05;  1.00959      ;-0.0630564    
   7.34282070291E+05;  1.00946      ;-0.0630876    
   7.37710224074E+05;  1.00959      ;-0.0636431    
   7.41154382930E+05;  1.00956      ;-0.063766     
   7.44614621583E+05;  1.0096       ;-0.0642556    
   7.48091015104E+05;  1.00946      ;-0.0641346    
   7.51583638916E+05;  1.00962      ;-0.0649584    
   7.55092568793E+05;  1.00953      ;-0.0651925    
   7.58617880864E+05;  1.00901      ;-0.0654173    
   7.62159651613E+05;  1.00925      ;-0.0656819    
   7.65717957881E+05;  1.00909      ;-0.0660165    
   7.69292876866E+05;  1.00917      ;-0.0665608    
   7.72884486130E+05;  1.00932      ;-0.066616     
   7.76492863594E+05;  1.00915      ;-0.0640662    
   7.80118087545E+05;  1.00934      ;-0.066948     
   7.83760236633E+05;  1.00937      ;-0.0677269    
   7.87419389878E+05;  1.00938      ;-0.0681602    
   7.91095626666E+05;  1.00923      ;-0.0681479    
   7.94789026757E+05;  1.00902      ;-0.0688088    
   7.98499670281E+05;  1.00934      ;-0.0688842    
   8.02227637742E+05;  1.00908      ;-0.0676716    
   8.05973010021E+05;  1.00907      ;-0.0699711    
   8.09735868376E+05;  1.00897      ;-0.070058     
   8.13516294445E+05;  1.00876      ;-0.0705489    
   8.17314370245E+05;  1.00897      ;-0.0709663    
   8.21130178180E+05;  1.00921      ;-0.0705311    
   8.24963801035E+05;  1.00898      ;-0.0711804    
   8.28815321983E+05;  1.00899      ;-0.071105     
   8.32684824584E+05;  1.0088       ;-0.0719141    
   8.36572392791E+05;  1.00869      ;-0.0723856    
   8.40478110946E+05;  1.00853      ;-0.0724908    
   8.44402063787E+05;  1.00895      ;-0.0725247    
   8.48344336445E+05;  1.00874      ;-0.0733008    
   8.52305014451E+05;  1.00871      ;-0.0733698    
   8.56284183734E+05;  1.00847      ;-0.0739729    
   8.60281930626E+05;  1.00826      ;-0.074047     
   8.64298341858E+05;  1.00843      ;-0.0744231    
   8.68333504570E+05;  1.00838      ;-0.0747651    
   8.72387506307E+05;  1.00827      ;-0.0748439    
   8.76460435023E+05;  1.00843      ;-0.0753831    
   8.80552379083E+05;  1.00853      ;-0.0757435    
   8.84663427264E+05;  1.00829      ;-0.0761536    
   8.88793668757E+05;  1.00836      ;-0.0763211    
   8.92943193172E+05;  1.00829      ;-0.0769544    
   8.97112090533E+05;  1.00822      ;-0.0769105    
   9.01300451289E+05;  1.00809      ;-0.0772842    
   9.05508366308E+05;  1.0085       ;-0.0777466    
   9.09735926883E+05;  1.00805      ;-0.0778833    
   9.13983224734E+05;  1.0078       ;-0.0785406    
   9.18250352008E+05;  1.00824      ;-0.0786458    
   9.22537401284E+05;  1.00804      ;-0.0794039    
   9.26844465572E+05;  1.00816      ;-0.0795469    
   9.31171638315E+05;  1.00814      ;-0.079631     
   9.35519013396E+05;  1.00791      ;-0.0805367    
   9.39886685132E+05;  1.00804      ;-0.0803432    
   9.44274748283E+05;  1.00764      ;-0.0813193    
   9.48683298050E+05;  1.00768      ;-0.0804304    
   9.53112430081E+05;  1.00783      ;-0.0819296    
   9.57562240467E+05;  1.00751      ;-0.0821307    
   9.62032825750E+05;  1.00761      ;-0.0829407    
   9.66524282922E+05;  1.00792      ;-0.0829873    
   9.71036709427E+05;  1.00787      ;-0.0834133    
   9.75570203167E+05;  1.00763      ;-0.0872388    
   9.80124862497E+05;  1.00758      ;-0.0838357    
   9.84700786234E+05;  1.00757      ;-0.0845834    
   9.89298073655E+05;  1.00773      ;-0.0845916    
   9.93916824501E+05;  1.00774      ;-0.0854245    
   9.98557138979E+05;  1.00751      ;-0.0841677    
   1.00321911776E+06;  1.00755      ;-0.0863141    
   1.00790286200E+06;  1.00761      ;-0.0866563    
   1.01260847330E+06;  1.00767      ;-0.0867254    
   1.01733605376E+06;  1.00748      ;-0.0872441    
   1.02208570595E+06;  1.00715      ;-0.0879176    
   1.02685753291E+06;  1.00726      ;-0.088458     
   1.03165163817E+06;  1.00734      ;-0.0887       
   1.03646812574E+06;  1.00739      ;-0.0887885    
   1.04130710012E+06;  1.00741      ;-0.0887489    
   1.04616866629E+06;  1.0073       ;-0.08963      
   1.05105292973E+06;  1.00717      ;-0.0901071    
   1.05595999641E+06;  1.00704      ;-0.0903257    
   1.06088997278E+06;  1.00725      ;-0.0907783    
   1.06584296581E+06;  1.00721      ;-0.0912429    
   1.07081908295E+06;  1.00715      ;-0.0916568    
   1.07581843216E+06;  1.00705      ;-0.0922599    
   1.08084112191E+06;  1.0069       ;-0.0928404    
   1.08588726117E+06;  1.00707      ;-0.0929412    
   1.09095695941E+06;  1.00687      ;-0.0934741    
   1.09605032663E+06;  1.00642      ;-0.0939111    
   1.10116747333E+06;  1.0069       ;-0.0942753    
   1.10630851053E+06;  1.00639      ;-0.0950588    
   1.11147354977E+06;  1.00661      ;-0.0935715    
   1.11666270311E+06;  1.00635      ;-0.0959491    
   1.12187608312E+06;  1.00631      ;-0.0963444    
   1.12711380292E+06;  1.0061       ;-0.0967393    
   1.13237597614E+06;  1.00606      ;-0.0972686    
   1.13766271695E+06;  1.00617      ;-0.0974812    
   1.14297414004E+06;  1.00617      ;-0.098378     
   1.14831036066E+06;  1.0059       ;-0.0984619    
   1.15367149457E+06;  1.00605      ;-0.0985677    
   1.15905765809E+06;  1.00592      ;-0.0996589    
   1.16446896807E+06;  1.00594      ;-0.0998651    
   1.16990554191E+06;  1.00577      ;-0.100262     
   1.17536749757E+06;  1.00607      ;-0.100859     
   1.18085495355E+06;  1.00552      ;-0.101065     
   1.18636802889E+06;  1.00533      ;-0.101239     
   1.19190684321E+06;  1.00584      ;-0.101708     
   1.19747151667E+06;  1.00555      ;-0.102553     
   1.20306217002E+06;  1.00595      ;-0.102978     
   1.20867892452E+06;  1.00546      ;-0.103517     
   1.21432190206E+06;  1.00535      ;-0.103694     
   1.21999122505E+06;  1.00545      ;-0.104065     
   1.22568701649E+06;  1.00521      ;-0.104749     
   1.23140939996E+06;  1.00534      ;-0.105396     
   1.23715849961E+06;  1.00546      ;-0.105416     
   1.24293444017E+06;  1.00521      ;-0.106229     
   1.24873734695E+06;  1.00517      ;-0.106344     
   1.25456734585E+06;  1.005        ;-0.107086     
   1.26042456335E+06;  1.00495      ;-0.107438     
   1.26630912653E+06;  1.00514      ;-0.107411     
   1.27222116306E+06;  1.00489      ;-0.108281     
   1.27816080120E+06;  1.00473      ;-0.108713     
   1.28412816982E+06;  1.00451      ;-0.10901      
   1.29012339839E+06;  1.0048       ;-0.109774     
   1.29614661697E+06;  1.00493      ;-0.11051      
   1.30219795624E+06;  1.00496      ;-0.110887     
   1.30827754749E+06;  1.00487      ;-0.111473     
   1.31438552262E+06;  1.00481      ;-0.111807     
   1.32052201414E+06;  1.0046       ;-0.112319     
   1.32668715520E+06;  1.00472      ;-0.113046     
   1.33288107954E+06;  1.00477      ;-0.113475     
   1.33910392155E+06;  1.00428      ;-0.113596     
   1.34535581624E+06;  1.00443      ;-0.114475     
   1.35163689924E+06;  1.00415      ;-0.114884     
   1.35794730683E+06;  1.00418      ;-0.115666     
   1.36428717592E+06;  1.00421      ;-0.115996     
   1.37065664404E+06;  1.00447      ;-0.116633     
   1.37705584940E+06;  1.00408      ;-0.116707     
   1.38348493083E+06;  1.00407      ;-0.117177     
   1.38994402780E+06;  1.0043       ;-0.11824      
   1.39643328046E+06;  1.00311      ;-0.118532     
   1.40295282959E+06;  1.00308      ;-0.120013     
   1.40950281664E+06;  1.00409      ;-0.119613     
   1.41608338371E+06;  1.00381      ;-0.120103     
   1.42269467357E+06;  1.00384      ;-0.120787     
   1.42933682967E+06;  1.00373      ;-0.120837     
   1.43600999609E+06;  1.00355      ;-0.121843     
   1.44271431763E+06;  1.00385      ;-0.122433     
   1.44944993974E+06;  1.00302      ;-0.122818     
   1.45621700855E+06;  1.00342      ;-0.123261     
   1.46301567087E+06;  1.00326      ;-0.123805     
   1.46984607422E+06;  1.0035       ;-0.124523     
   1.47670836676E+06;  1.00357      ;-0.125178     
   1.48360269740E+06;  1.00321      ;-0.126046     
   1.49052921570E+06;  1.00296      ;-0.126595     
   1.49748807195E+06;  1.00273      ;-0.126708     
   1.50447941711E+06;  1.00265      ;-0.127698     
   1.51150340287E+06;  1.00306      ;-0.128122     
   1.51856018161E+06;  1.00282      ;-0.128625     
   1.52564990645E+06;  1.0025       ;-0.12951      
   1.53277273119E+06;  1.00247      ;-0.129719     
   1.53992881038E+06;  1.00256      ;-0.130623     
   1.54711829925E+06;  1.00263      ;-0.131044     
   1.55434135380E+06;  1.00251      ;-0.131336     
   1.56159813074E+06;  1.00254      ;-0.132117     
   1.56888878750E+06;  1.00245      ;-0.132749     
   1.57621348226E+06;  1.00207      ;-0.133499     
   1.58357237393E+06;  1.00245      ;-0.134153     
   1.59096562217E+06;  1.00227      ;-0.134301     
   1.59839338738E+06;  1.00218      ;-0.135011     
   1.60585583071E+06;  1.00195      ;-0.135695     
   1.61335311406E+06;  1.0016       ;-0.13666      
   1.62088540009E+06;  1.00198      ;-0.136745     
   1.62845285222E+06;  1.00207      ;-0.137668     
   1.63605563463E+06;  1.00128      ;-0.138617     
   1.64369391226E+06;  1.00145      ;-0.138984     
   1.65136785083E+06;  1.00158      ;-0.13931      
   1.65907761684E+06;  1.00146      ;-0.14008      
   1.66682337755E+06;  1.00108      ;-0.140795     
   1.67460530100E+06;  1.00129      ;-0.141586     
   1.68242355604E+06;  1.001        ;-0.142346     
   1.69027831229E+06;  1.00129      ;-0.142476     
   1.69816974015E+06;  1.00106      ;-0.143329     
   1.70609801085E+06;  1.00091      ;-0.144299     
   1.71406329638E+06;  1.00109      ;-0.144318     
   1.72206576956E+06;  1.00058      ;-0.145638     
   1.73010560400E+06;  1.00084      ;-0.145989     
   1.73818297415E+06;  1.00042      ;-0.146961     
   1.74629805523E+06;  1.0004       ;-0.147592     
   1.75445102331E+06;  1.00042      ;-0.147891     
   1.76264205528E+06;  1.00015      ;-0.148633     
   1.77087132885E+06;  1.00038      ;-0.149191     
   1.77913902254E+06;  0.999843     ;-0.149975     
   1.78744531575E+06;  1.00004      ;-0.150866     
   1.79579038867E+06;  0.999903     ;-0.151098     
   1.80417442236E+06;  0.999995     ;-0.152415     
   1.81259759871E+06;  0.99945      ;-0.152708     
   1.82106010047E+06;  0.99936      ;-0.153609     
   1.82956211125E+06;  0.999465     ;-0.154208     
   1.83810381549E+06;  0.998966     ;-0.155073     
   1.84668539851E+06;  0.999555     ;-0.155639     
   1.85530704650E+06;  0.998966     ;-0.156484     
   1.86396894651E+06;  0.998881     ;-0.157223     
   1.87267128646E+06;  0.998998     ;-0.157871     
   1.88141425515E+06;  0.99845      ;-0.158181     
   1.89019804228E+06;  0.998774     ;-0.159111     
   1.89902283840E+06;  0.998632     ;-0.159972     
   1.90788883499E+06;  0.998278     ;-0.160916     
   1.91679622438E+06;  0.998364     ;-0.161265     
   1.92574519984E+06;  0.998071     ;-0.162159     
   1.93473595552E+06;  0.99804      ;-0.162806     
   1.94376868647E+06;  0.997817     ;-0.164205     
   1.95284358867E+06;  0.997622     ;-0.1647       
   1.96196085901E+06;  0.99704      ;-0.165575     
   1.97112069528E+06;  0.997033     ;-0.166191     
   1.98032329621E+06;  0.997079     ;-0.166784     
   1.98956886147E+06;  0.996985     ;-0.167771     
   1.99885759164E+06;  0.997669     ;-0.168141     
   2.00818968825E+06;  0.997117     ;-0.168939     
   2.01756535375E+06;  0.996734     ;-0.169881     
   2.02698479156E+06;  0.996647     ;-0.171033     
   2.03644820605E+06;  0.99594      ;-0.171753     
   2.04595580252E+06;  0.996459     ;-0.172594     
   2.05550778725E+06;  0.996584     ;-0.173139     
   2.06510436748E+06;  0.996029     ;-0.174126     
   2.07474575141E+06;  0.996298     ;-0.174816     
   2.08443214821E+06;  0.995805     ;-0.175704     
   2.09416376803E+06;  0.996539     ;-0.176682     
   2.10394082202E+06;  0.995876     ;-0.177564     
   2.11376352229E+06;  0.995548     ;-0.178553     
   2.12363208194E+06;  0.994595     ;-0.179782     
   2.13354671509E+06;  0.994858     ;-0.180395     
   2.14350763684E+06;  0.994635     ;-0.180752     
   2.15351506329E+06;  0.994671     ;-0.181802     
   2.16356921157E+06;  0.994241     ;-0.182482     
   2.17367029980E+06;  0.994559     ;-0.183974     
   2.18381854713E+06;  0.993182     ;-0.185381     
   2.19401417374E+06;  0.993422     ;-0.184751     
   2.20425740082E+06;  0.993854     ;-0.184992     
   2.21454845061E+06;  0.993939     ;-0.185885     
   2.22488754638E+06;  0.993587     ;-0.187323     
   2.23527491245E+06;  0.99332      ;-0.188248     
   2.24571077416E+06;  0.993107     ;-0.189205     
   2.25619535795E+06;  0.992848     ;-0.190116     
   2.26672889126E+06;  0.992294     ;-0.191311     
   2.27731160265E+06;  0.99219      ;-0.191946     
   2.28794372169E+06;  0.991888     ;-0.192869     
   2.29862547907E+06;  0.99259      ;-0.193428     
   2.30935710654E+06;  0.992064     ;-0.194458     
   2.32013883691E+06;  0.991899     ;-0.195475     
   2.33097090411E+06;  0.991951     ;-0.196621     
   2.34185354315E+06;  0.991578     ;-0.197468     
   2.35278699013E+06;  0.991151     ;-0.198609     
   2.36377148226E+06;  0.990978     ;-0.199259     
   2.37480725785E+06;  0.990076     ;-0.199833     
   2.38589455633E+06;  0.990278     ;-0.200596     
   2.39703361825E+06;  0.990372     ;-0.202136     
   2.40822468528E+06;  0.990403     ;-0.203156     
   2.41946800021E+06;  0.990011     ;-0.203381     
   2.43076380698E+06;  0.989592     ;-0.204182     
   2.44211235065E+06;  0.989518     ;-0.205222     
   2.45351387743E+06;  0.989403     ;-0.206486     
   2.46496863470E+06;  0.989011     ;-0.207101     
   2.47647687096E+06;  0.989068     ;-0.208165     
   2.48803883590E+06;  0.988392     ;-0.209397     
   2.49965478036E+06;  0.987998     ;-0.21036      
   2.51132495636E+06;  0.988178     ;-0.211232     
   2.52304961708E+06;  0.988101     ;-0.211951     
   2.53482901691E+06;  0.987478     ;-0.212947     
   2.54666341139E+06;  0.986796     ;-0.213967     
   2.55855305729E+06;  0.987045     ;-0.214892     
   2.57049821256E+06;  0.987028     ;-0.215723     
   2.58249913636E+06;  0.986577     ;-0.21627      
   2.59455608905E+06;  0.986437     ;-0.217865     
   2.60666933222E+06;  0.9864       ;-0.2186       
   2.61883912867E+06;  0.985276     ;-0.219713     
   2.63106574243E+06;  0.985409     ;-0.220849     
   2.64334943877E+06;  0.985278     ;-0.221281     
   2.65569048418E+06;  0.985016     ;-0.22266      
   2.66808914643E+06;  0.984773     ;-0.223552     
   2.68054569449E+06;  0.984265     ;-0.224233     
   2.69306039863E+06;  0.98441      ;-0.225609     
   2.70563353035E+06;  0.984452     ;-0.226691     
   2.71826536245E+06;  0.98387      ;-0.227357     
   2.73095616896E+06;  0.983261     ;-0.228752     
   2.74370622524E+06;  0.983221     ;-0.229319     
   2.75651580790E+06;  0.982827     ;-0.23048      
   2.76938519486E+06;  0.983127     ;-0.231592     
   2.78231466531E+06;  0.982817     ;-0.232335     
   2.79530449978E+06;  0.9821       ;-0.233553     
   2.80835498008E+06;  0.981631     ;-0.234245     
   2.82146638936E+06;  0.981698     ;-0.235964     
   2.83463901207E+06;  0.981217     ;-0.236843     
   2.84787313400E+06;  0.980933     ;-0.238027     
   2.86116904228E+06;  0.980363     ;-0.238731     
   2.87452702537E+06;  0.980249     ;-0.240175     
   2.88794737307E+06;  0.980131     ;-0.240797     
   2.90143037655E+06;  0.979844     ;-0.242025     
   2.91497632834E+06;  0.980095     ;-0.243181     
   2.92858552231E+06;  0.979329     ;-0.244512     
   2.94225825374E+06;  0.978635     ;-0.245446     
   2.95599481925E+06;  0.97835      ;-0.24613      
   2.96979551687E+06;  0.977987     ;-0.247533     
   2.98366064602E+06;  0.978089     ;-0.248619     
   2.99759050750E+06;  0.977543     ;-0.249642     
   3.01158540354E+06;  0.977047     ;-0.25027      
   3.02564563777E+06;  0.976956     ;-0.251706     
   3.03977151522E+06;  0.976763     ;-0.253092     
   3.05396334236E+06;  0.97684      ;-0.253735     
   3.06822142711E+06;  0.975761     ;-0.255016     
   3.08254607879E+06;  0.975791     ;-0.256088     
   3.09693760819E+06;  0.974245     ;-0.257136     
   3.11139632753E+06;  0.974901     ;-0.258383     
   3.12592255052E+06;  0.974758     ;-0.259939     
   3.14051659231E+06;  0.974398     ;-0.260523     
   3.15517876952E+06;  0.97394      ;-0.261492     
   3.16990940026E+06;  0.97355      ;-0.26288      
   3.18470880411E+06;  0.972762     ;-0.264072     
   3.19957730217E+06;  0.972782     ;-0.265059     
   3.21451521700E+06;  0.972548     ;-0.266435     
   3.22952287271E+06;  0.971547     ;-0.267398     
   3.24460059488E+06;  0.971352     ;-0.268572     
   3.25974871064E+06;  0.971517     ;-0.270272     
   3.27496754864E+06;  0.971052     ;-0.271231     
   3.29025743906E+06;  0.97048      ;-0.27261      
   3.30561871362E+06;  0.970161     ;-0.273526     
   3.32105170559E+06;  0.970201     ;-0.274699     
   3.33655674981E+06;  0.96966      ;-0.275804     
   3.35213418266E+06;  0.968891     ;-0.277351     
   3.36778434211E+06;  0.968884     ;-0.278293     
   3.38350756769E+06;  0.968113     ;-0.279715     
   3.39930420053E+06;  0.96803      ;-0.280168     
   3.41517458335E+06;  0.967627     ;-0.281986     
   3.43111906047E+06;  0.96701      ;-0.28341      
   3.44713797781E+06;  0.966965     ;-0.284681     
   3.46323168291E+06;  0.966346     ;-0.28594      
   3.47940052493E+06;  0.965884     ;-0.286662     
   3.49564485467E+06;  0.965538     ;-0.288392     
   3.51196502455E+06;  0.965613     ;-0.289727     
   3.52836138867E+06;  0.96449      ;-0.290597     
   3.54483430273E+06;  0.964063     ;-0.292199     
   3.56138412413E+06;  0.963756     ;-0.293399     
   3.57801121194E+06;  0.963434     ;-0.294538     
   3.59471592688E+06;  0.962935     ;-0.2958       
   3.61149863138E+06;  0.962695     ;-0.29745      
   3.62835968954E+06;  0.962086     ;-0.298411     
   3.64529946718E+06;  0.961789     ;-0.299941     
   3.66231833181E+06;  0.961005     ;-0.300782     
   3.67941665268E+06;  0.960364     ;-0.302614     
   3.69659480073E+06;  0.960499     ;-0.303456     
   3.71385314866E+06;  0.960147     ;-0.305613     
   3.73119207091E+06;  0.959771     ;-0.306681     
   3.74861194364E+06;  0.959077     ;-0.308352     
   3.76611314479E+06;  0.958272     ;-0.309078     
   3.78369605406E+06;  0.95759      ;-0.310734     
   3.80136105293E+06;  0.95778      ;-0.31171      
   3.81910852465E+06;  0.957608     ;-0.313352     
   3.83693885425E+06;  0.957114     ;-0.314473     
   3.85485242859E+06;  0.956421     ;-0.316358     
   3.87284963629E+06;  0.955703     ;-0.317224     
   3.89093086784E+06;  0.954936     ;-0.318329     
   3.90909651550E+06;  0.955156     ;-0.320012     
   3.92734697339E+06;  0.954319     ;-0.321325     
   3.94568263748E+06;  0.95345      ;-0.323214     
   3.96410390555E+06;  0.953237     ;-0.324004     
   3.98261117728E+06;  0.952525     ;-0.325783     
   4.00120485418E+06;  0.951878     ;-0.327064     
   4.01988533967E+06;  0.951993     ;-0.328392     
   4.03865303902E+06;  0.951092     ;-0.32979      
   4.05750835941E+06;  0.951216     ;-0.330919     
   4.07645170992E+06;  0.94985      ;-0.332822     
   4.09548350154E+06;  0.949387     ;-0.334081     
   4.11460414717E+06;  0.948758     ;-0.335236     
   4.13381406165E+06;  0.948503     ;-0.336955     
   4.15311366174E+06;  0.947792     ;-0.338541     
   4.17250336617E+06;  0.94769      ;-0.340509     
   4.19198359560E+06;  0.946776     ;-0.341581     
   4.21155477268E+06;  0.945758     ;-0.34329      
   4.23121732200E+06;  0.9457       ;-0.343987     
   4.25097167017E+06;  0.945103     ;-0.346063     
   4.27081824576E+06;  0.944342     ;-0.347956     
   4.29075747935E+06;  0.943916     ;-0.348853     
   4.31078980355E+06;  0.943204     ;-0.351152     
   4.33091565296E+06;  0.942842     ;-0.352017     
   4.35113546423E+06;  0.941855     ;-0.353784     
   4.37144967604E+06;  0.941232     ;-0.355414     
   4.39185872911E+06;  0.940674     ;-0.356877     
   4.41236306624E+06;  0.940328     ;-0.358218     
   4.43296313227E+06;  0.939774     ;-0.359689     
   4.45365937415E+06;  0.939235     ;-0.361689     
   4.47445224088E+06;  0.93843      ;-0.362966     
   4.49534218358E+06;  0.937862     ;-0.36492      
   4.51632965547E+06;  0.936747     ;-0.365935     
   4.53741511189E+06;  0.936044     ;-0.367731     
   4.55859901030E+06;  0.935698     ;-0.369582     
   4.57988181030E+06;  0.934845     ;-0.370771     
   4.60126397362E+06;  0.934176     ;-0.37245      
   4.62274596417E+06;  0.934384     ;-0.374482     
   4.64432824802E+06;  0.933268     ;-0.375859     
   4.66601129340E+06;  0.93234      ;-0.377428     
   4.68779557074E+06;  0.931509     ;-0.37898      
   4.70968155267E+06;  0.930636     ;-0.380182     
   4.73166971401E+06;  0.930298     ;-0.382067     
   4.75376053181E+06;  0.9297       ;-0.383441     
   4.77595448534E+06;  0.928999     ;-0.385301     
   4.79825205612E+06;  0.928386     ;-0.387609     
   4.82065372791E+06;  0.927605     ;-0.388877     
   4.84315998672E+06;  0.926693     ;-0.390367     
   4.86577132084E+06;  0.925846     ;-0.392265     
   4.88848822084E+06;  0.92538      ;-0.394126     
   4.91131117957E+06;  0.924739     ;-0.396287     
   4.93424069219E+06;  0.923783     ;-0.397211     
   4.95727725617E+06;  0.922392     ;-0.399146     
   4.98042137131E+06;  0.921837     ;-0.401565     
   5.00367353973E+06;  0.921368     ;-0.403219     
   5.02703426589E+06;  0.920322     ;-0.404017     
   5.05050405663E+06;  0.919073     ;-0.406306     
   5.07408342114E+06;  0.918817     ;-0.408429     
   5.09777287099E+06;  0.918069     ;-0.409586     
   5.12157292012E+06;  0.91686      ;-0.411625     
   5.14548408490E+06;  0.916889     ;-0.413166     
   5.16950688410E+06;  0.915416     ;-0.414811     
   5.19364183891E+06;  0.9152       ;-0.417037     
   5.21788947294E+06;  0.914433     ;-0.418426     
   5.24225031227E+06;  0.912958     ;-0.420037     
   5.26672488541E+06;  0.911873     ;-0.422116     
   5.29131372336E+06;  0.911029     ;-0.423911     
   5.31601735960E+06;  0.910594     ;-0.42561      
   5.34083633007E+06;  0.909398     ;-0.427579     
   5.36577117324E+06;  0.908598     ;-0.429149     
   5.39082243010E+06;  0.907555     ;-0.430768     
   5.41599064413E+06;  0.906963     ;-0.433        
   5.44127636139E+06;  0.905942     ;-0.434713     
   5.46668013045E+06;  0.905067     ;-0.436595     
   5.49220250247E+06;  0.904281     ;-0.438345     
   5.51784403118E+06;  0.903584     ;-0.440723     
   5.54360527288E+06;  0.902062     ;-0.442407     
   5.56948678648E+06;  0.901356     ;-0.44416      
   5.59548913349E+06;  0.900134     ;-0.446333     
   5.62161287805E+06;  0.899532     ;-0.448228     
   5.64785858693E+06;  0.898117     ;-0.449914     
   5.67422682955E+06;  0.897573     ;-0.452549     
   5.70071817798E+06;  0.896256     ;-0.45395      
   5.72733320697E+06;  0.895162     ;-0.455525     
   5.75407249394E+06;  0.893971     ;-0.457015     
   5.78093661903E+06;  0.89317      ;-0.459215     
   5.80792616507E+06;  0.892399     ;-0.461671     
   5.83504171760E+06;  0.891747     ;-0.463639     
   5.86228386493E+06;  0.890487     ;-0.465492     
   5.88965319808E+06;  0.889087     ;-0.467508     
   5.91715031085E+06;  0.887464     ;-0.46975      
   5.94477579980E+06;  0.886784     ;-0.471426     
   5.97253026429E+06;  0.885664     ;-0.47334      
   6.00041430647E+06;  0.884766     ;-0.47549      
   6.02842853130E+06;  0.883351     ;-0.477485     
   6.05657354656E+06;  0.882009     ;-0.479731     
   6.08484996288E+06;  0.881343     ;-0.48078      
   6.11325839373E+06;  0.880333     ;-0.483071     
   6.14179945545E+06;  0.879221     ;-0.485862     
   6.17047376725E+06;  0.878073     ;-0.487881     
   6.19928195125E+06;  0.876372     ;-0.489976     
   6.22822463245E+06;  0.874886     ;-0.491957     
   6.25730243878E+06;  0.874151     ;-0.493937     
   6.28651600111E+06;  0.872398     ;-0.496241     
   6.31586595324E+06;  0.871349     ;-0.497673     
   6.34535293193E+06;  0.869795     ;-0.500205     
   6.37497757692E+06;  0.869065     ;-0.502394     
   6.40474053094E+06;  0.867544     ;-0.504087     
   6.43464243971E+06;  0.865794     ;-0.506612     
   6.46468395198E+06;  0.864679     ;-0.508531     
   6.49486571950E+06;  0.863184     ;-0.510731     
   6.52518839710E+06;  0.862326     ;-0.512627     
   6.55565264265E+06;  0.860883     ;-0.514912     
   6.58625911707E+06;  0.859769     ;-0.517032     
   6.61700848441E+06;  0.858369     ;-0.518759     
   6.64790141178E+06;  0.857016     ;-0.521381     
   6.67893856942E+06;  0.855196     ;-0.524031     
   6.71012063072E+06;  0.854033     ;-0.525568     
   6.74144827217E+06;  0.852076     ;-0.528301     
   6.77292217346E+06;  0.851274     ;-0.530391     
   6.80454301742E+06;  0.849797     ;-0.532148     
   6.83631149009E+06;  0.848333     ;-0.534881     
   6.86822828072E+06;  0.847286     ;-0.53675      
   6.90029408174E+06;  0.846022     ;-0.538785     
   6.93250958885E+06;  0.844343     ;-0.541448     
   6.96487550099E+06;  0.842397     ;-0.543659     
   6.99739252035E+06;  0.841028     ;-0.545665     
   7.03006135241E+06;  0.839394     ;-0.548042     
   7.06288270594E+06;  0.838143     ;-0.550382     
   7.09585729302E+06;  0.836558     ;-0.552872     
   7.12898582905E+06;  0.834586     ;-0.554607     
   7.16226903277E+06;  0.833451     ;-0.55719      
   7.19570762629E+06;  0.831821     ;-0.559617     
   7.22930233508E+06;  0.830402     ;-0.562049     
   7.26305388799E+06;  0.828506     ;-0.564004     
   7.29696301729E+06;  0.82708      ;-0.566117     
   7.33103045865E+06;  0.825506     ;-0.569167     
   7.36525695118E+06;  0.823143     ;-0.570644     
   7.39964323746E+06;  0.821738     ;-0.573819     
   7.43419006352E+06;  0.819617     ;-0.57515      
   7.46889817886E+06;  0.81796      ;-0.578275     
   7.50376833650E+06;  0.816635     ;-0.580171     
   7.53880129297E+06;  0.81439      ;-0.583218     
   7.57399780834E+06;  0.812619     ;-0.585405     
   7.60935864621E+06;  0.810557     ;-0.587832     
   7.64488457376E+06;  0.808861     ;-0.591142     
   7.68057636174E+06;  0.80715      ;-0.593424     
   7.71643478451E+06;  0.805308     ;-0.595629     
   7.75246062004E+06;  0.80326      ;-0.597716     
   7.78865464993E+06;  0.801728     ;-0.599782     
   7.82501765943E+06;  0.799402     ;-0.602207     
   7.86155043747E+06;  0.797655     ;-0.603773     
   7.89825377664E+06;  0.796003     ;-0.606268     
   7.93512847324E+06;  0.793817     ;-0.608041     
   7.97217532729E+06;  0.792309     ;-0.610617     
   8.00939514255E+06;  0.7906       ;-0.612491     
   8.04678872653E+06;  0.788261     ;-0.614516     
   8.08435689049E+06;  0.786409     ;-0.617175     
   8.12210044951E+06;  0.784873     ;-0.619786     
   8.16002022245E+06;  0.782637     ;-0.621899     
   8.19811703201E+06;  0.780592     ;-0.624695     
   8.23639170472E+06;  0.778312     ;-0.627112     
   8.27484507097E+06;  0.775697     ;-0.63012      
   8.31347796503E+06;  0.773584     ;-0.632711     
   8.35229122506E+06;  0.771292     ;-0.635861     
   8.39128569315E+06;  0.769497     ;-0.638616     
   8.43046221530E+06;  0.766811     ;-0.64071      
   8.46982164147E+06;  0.764634     ;-0.643464     
   8.50936482559E+06;  0.762392     ;-0.646287     
   8.54909262557E+06;  0.759868     ;-0.649107     
   8.58900590333E+06;  0.75745      ;-0.651403     
   8.62910552481E+06;  0.755367     ;-0.653581     
   8.66939236000E+06;  0.752825     ;-0.65632      
   8.70986728294E+06;  0.750821     ;-0.658961     
   8.75053117177E+06;  0.748154     ;-0.660653     
   8.79138490870E+06;  0.745664     ;-0.663368     
   8.83242938010E+06;  0.743611     ;-0.665772     
   8.87366547644E+06;  0.740767     ;-0.668385     
   8.91509409236E+06;  0.738713     ;-0.670753     
   8.95671612669E+06;  0.735513     ;-0.673436     
   8.99853248244E+06;  0.733403     ;-0.675209     
   9.04054406684E+06;  0.730985     ;-0.678208     
   9.08275179136E+06;  0.728407     ;-0.680305     
   9.12515657172E+06;  0.725537     ;-0.682995     
   9.16775932792E+06;  0.723223     ;-0.685167     
   9.21056098424E+06;  0.720704     ;-0.687591     
   9.25356246931E+06;  0.71799      ;-0.69036      
   9.29676471606E+06;  0.715347     ;-0.692491     
   9.34016866179E+06;  0.712557     ;-0.695061     
   9.38377524818E+06;  0.709597     ;-0.697082     
   9.42758542129E+06;  0.706947     ;-0.699803     
   9.47160013162E+06;  0.703539     ;-0.702319     
   9.51582033409E+06;  0.701351     ;-0.705057     
   9.56024698809E+06;  0.698623     ;-0.707681     
   9.60488105748E+06;  0.695333     ;-0.710605     
   9.64972351063E+06;  0.692753     ;-0.712953     
   9.69477532041E+06;  0.6892       ;-0.715764     
   9.74003746425E+06;  0.686133     ;-0.717809     
   9.78551092415E+06;  0.682509     ;-0.72104      
   9.83119668668E+06;  0.679757     ;-0.723641     
   9.87709574301E+06;  0.676537     ;-0.726027     
   9.92320908897E+06;  0.67315      ;-0.728896     
   9.96953772500E+06;  0.66989      ;-0.731045     
   1.00160826562E+07;  0.666745     ;-0.733015     
   1.00628448925E+07;  0.663174     ;-0.735794     
   1.01098254483E+07;  0.65958      ;-0.738099     
   1.01570253429E+07;  0.656285     ;-0.740267     
   1.02044456004E+07;  0.65455      ;-0.742012     
   1.02520872496E+07;  0.650449     ;-0.743459     
   1.02999513241E+07;  0.6468       ;-0.745894     
   1.03480388622E+07;  0.64331      ;-0.748056     
   1.03963509075E+07;  0.639287     ;-0.749649     
   1.04448885078E+07;  0.635869     ;-0.751586     
   1.04936527164E+07;  0.63258      ;-0.75366      
   1.05426445912E+07;  0.629073     ;-0.75516      
   1.05918651951E+07;  0.625892     ;-0.756399     
   1.06413155960E+07;  0.622436     ;-0.758326     
   1.06909968667E+07;  0.61931      ;-0.759761     
   1.07409100851E+07;  0.616055     ;-0.761684     
   1.07910563342E+07;  0.61348      ;-0.763265     
   1.08414367017E+07;  0.610919     ;-0.76488      
   1.08920522808E+07;  0.607428     ;-0.766546     
   1.09429041697E+07;  0.605655     ;-0.768605     
   1.09939934715E+07;  0.602991     ;-0.771074     
   1.10453212948E+07;  0.600106     ;-0.773252     
   1.10968887530E+07;  0.596872     ;-0.775915     
   1.11486969650E+07;  0.59393      ;-0.778635     
   1.12007470548E+07;  0.590483     ;-0.78075      
   1.12530401516E+07;  0.586921     ;-0.783812     
   1.13055773899E+07;  0.583709     ;-0.786466     
   1.13583599097E+07;  0.58103      ;-0.788285     
   1.14113888560E+07;  0.577968     ;-0.79153      
   1.14646653794E+07;  0.574461     ;-0.793972     
   1.15181906357E+07;  0.570635     ;-0.796272     
   1.15719657861E+07;  0.56749      ;-0.799417     
   1.16259919974E+07;  0.563232     ;-0.802057     
   1.16802704417E+07;  0.560052     ;-0.804251     
   1.17348022966E+07;  0.555652     ;-0.807063     
   1.17895887452E+07;  0.551681     ;-0.810033     
   1.18446309761E+07;  0.548237     ;-0.812205     
   1.18999301835E+07;  0.543522     ;-0.814885     
   1.19554875671E+07;  0.539698     ;-0.817146     
   1.20113043323E+07;  0.535453     ;-0.819862     
   1.20673816901E+07;  0.531707     ;-0.822802     
   1.21237208571E+07;  0.526616     ;-0.824679     
   1.21803230557E+07;  0.523262     ;-0.826988     
   1.22371895137E+07;  0.518774     ;-0.82964      
   1.22943214651E+07;  0.514492     ;-0.831637     
   1.23517201492E+07;  0.509526     ;-0.833966     
   1.24093868115E+07;  0.505559     ;-0.836045     
   1.24673227030E+07;  0.500829     ;-0.838434     
   1.25255290806E+07;  0.496222     ;-0.840585     
   1.25840072073E+07;  0.491759     ;-0.841815     
   1.26427583516E+07;  0.486887     ;-0.845041     
   1.27017837883E+07;  0.481909     ;-0.846974     
   1.27610847980E+07;  0.476865     ;-0.848881     
   1.28206626672E+07;  0.472043     ;-0.85133      
   1.28805186885E+07;  0.466735     ;-0.852274     
   1.29406541604E+07;  0.461933     ;-0.854254     
   1.30010703878E+07;  0.457529     ;-0.856123     
   1.30617686813E+07;  0.451963     ;-0.857709     
   1.31227503579E+07;  0.447176     ;-0.859408     
   1.31840167405E+07;  0.442788     ;-0.860679     
   1.32455691585E+07;  0.438259     ;-0.862103     
   1.33074089471E+07;  0.433644     ;-0.86364      
   1.33695374481E+07;  0.428533     ;-0.864396     
   1.34319560093E+07;  0.424238     ;-0.865779     
   1.34946659850E+07;  0.419677     ;-0.866549     
   1.35576687358E+07;  0.416918     ;-0.867365     
   1.36209656284E+07;  0.413345     ;-0.867783     
   1.36845580362E+07;  0.408546     ;-0.870308     
   1.37484473388E+07;  0.404873     ;-0.870838     
   1.38126349224E+07;  0.401705     ;-0.871979     
   1.38771221795E+07;  0.398006     ;-0.873562     
   1.39419105092E+07;  0.390948     ;-0.877505     
   1.40070013172E+07;  0.384582     ;-0.879936     
   1.40723960157E+07;  0.377501     ;-0.882033     
   1.41380960233E+07;  0.370614     ;-0.884675     
   1.42041027656E+07;  0.362472     ;-0.887528     
   1.42704176745E+07;  0.356638     ;-0.889068     
   1.43370421889E+07;  0.351163     ;-0.890881     
   1.44039777541E+07;  0.34651      ;-0.891194     
   1.44712258224E+07;  0.341734     ;-0.891554     
   1.45387878528E+07;  0.3378       ;-0.892088     
   1.46066653111E+07;  0.332773     ;-0.892885     
   1.46748596698E+07;  0.327369     ;-0.893356     
   1.47433724086E+07;  0.322571     ;-0.893839     
   1.48122050139E+07;  0.317576     ;-0.895095     
   1.48813589790E+07;  0.311888     ;-0.895702     
   1.49508358042E+07;  0.306216     ;-0.896619     
   1.50206369970E+07;  0.299953     ;-0.896724     
   1.50907640716E+07;  0.29494      ;-0.897447     
   1.51612185496E+07;  0.289086     ;-0.898704     
   1.52320019594E+07;  0.2838       ;-0.899306     
   1.53031158368E+07;  0.277894     ;-0.899394     
   1.53745617247E+07;  0.272094     ;-0.899859     
   1.54463411730E+07;  0.266939     ;-0.900593     
   1.55184557392E+07;  0.261684     ;-0.901132     
   1.55909069877E+07;  0.25544      ;-0.901406     
   1.56636964904E+07;  0.249757     ;-0.901528     
   1.57368258266E+07;  0.244549     ;-0.901369     
   1.58102965828E+07;  0.238713     ;-0.902051     
   1.58841103531E+07;  0.232593     ;-0.902013     
   1.59582687388E+07;  0.22707      ;-0.901471     
   1.60327733489E+07;  0.221933     ;-0.901722     
   1.61076257998E+07;  0.216218     ;-0.902106     
   1.61828277154E+07;  0.210234     ;-0.901403     
   1.62583807274E+07;  0.205304     ;-0.900826     
   1.63342864749E+07;  0.199715     ;-0.901116     
   1.64105466046E+07;  0.194158     ;-0.90056      
   1.64871627712E+07;  0.189656     ;-0.900346     
   1.65641366369E+07;  0.184176     ;-0.899626     
   1.66414698715E+07;  0.178693     ;-0.899029     
   1.67191641531E+07;  0.174143     ;-0.898701     
   1.67972211671E+07;  0.169102     ;-0.897837     
   1.68756426070E+07;  0.16438      ;-0.897445     
   1.69544301743E+07;  0.158952     ;-0.897139     
   1.70335855784E+07;  0.153272     ;-0.89588      
   1.71131105364E+07;  0.148823     ;-0.895188     
   1.71930067738E+07;  0.143305     ;-0.894902     
   1.72732760240E+07;  0.138623     ;-0.894367     
   1.73539200285E+07;  0.13379      ;-0.894363     
   1.74349405368E+07;  0.129099     ;-0.89341      
   1.75163393068E+07;  0.123993     ;-0.892958     
   1.75981181045E+07;  0.120039     ;-0.89158      
   1.76802787040E+07;  0.115543     ;-0.89129      
   1.77628228880E+07;  0.111144     ;-0.890145     
   1.78457524473E+07;  0.10656      ;-0.890264     
   1.79290691811E+07;  0.101998     ;-0.889389     
   1.80127748969E+07;  0.0969047    ;-0.888783     
   1.80968714109E+07;  0.0922019    ;-0.889646     
   1.81813605476E+07;  0.0868264    ;-0.888974     
   1.82662441400E+07;  0.081037     ;-0.889382     
   1.83515240296E+07;  0.0748537    ;-0.889793     
   1.84372020668E+07;  0.0679823    ;-0.889778     
   1.85232801104E+07;  0.0612799    ;-0.890319     
   1.86097600278E+07;  0.0552419    ;-0.889897     
   1.86966436952E+07;  0.0493359    ;-0.889184     
   1.87839329978E+07;  0.0437834    ;-0.888479     
   1.88716298293E+07;  0.0389505    ;-0.888518     
   1.89597360923E+07;  0.0345963    ;-0.88768      
   1.90482536983E+07;  0.0308626    ;-0.886986     
   1.91371845678E+07;  0.0262832    ;-0.886437     
   1.92265306302E+07;  0.0212107    ;-0.886574     
   1.93162938239E+07;  0.0165504    ;-0.885878     
   1.94064760964E+07;  0.0116718    ;-0.885444     
   1.94970794042E+07;  0.00670239   ;-0.885782     
   1.95881057130E+07;  0.00177746   ;-0.885221     
   1.96795569978E+07; -0.00342385   ;-0.884477     
   1.97714352425E+07; -0.00853675   ;-0.884312     
   1.98637424406E+07; -0.0127596    ;-0.884126     
   1.99564805947E+07; -0.0171944    ;-0.883044     
   2.00496517169E+07; -0.0226702    ;-0.882854     
   2.01432578284E+07; -0.0264128    ;-0.882889     
   2.02373009602E+07; -0.0309223    ;-0.882494     
   2.03317831526E+07; -0.0365493    ;-0.882178     
   2.04267064554E+07; -0.041492     ;-0.882113     
   2.05220729281E+07; -0.0460058    ;-0.883029     
   2.06178846397E+07; -0.0534681    ;-0.883212     
   2.07141436689E+07; -0.0600129    ;-0.883842     
   2.08108521040E+07; -0.0668869    ;-0.885082     
   2.09080120433E+07; -0.0709796    ;-0.884791     
   2.10056255947E+07; -0.0796133    ;-0.885222     
   2.11036948759E+07; -0.0871708    ;-0.885433     
   2.12022220146E+07; -0.0924938    ;-0.885661     
   2.13012091485E+07; -0.0987446    ;-0.88543      
   2.14006584251E+07; -0.104258     ;-0.885481     
   2.15005720021E+07; -0.110199     ;-0.884252     
   2.16009520471E+07; -0.116676     ;-0.883142     
   2.17018007379E+07; -0.122048     ;-0.882208     
   2.18031202625E+07; -0.129644     ;-0.88152      
   2.19049128191E+07; -0.135705     ;-0.880413     
   2.20071806162E+07; -0.143565     ;-0.879366     
   2.21099258724E+07; -0.150029     ;-0.878693     
   2.22131508170E+07; -0.15711      ;-0.877484     
   2.23168576894E+07; -0.164533     ;-0.876991     
   2.24210487397E+07; -0.171477     ;-0.875699     
   2.25257262283E+07; -0.177207     ;-0.873528     
   2.26308924263E+07; -0.183356     ;-0.872968     
   2.27365496153E+07; -0.189868     ;-0.871466     
   2.28427000876E+07; -0.19608      ;-0.870439     
   2.29493461463E+07; -0.203323     ;-0.868675     
   2.30564901050E+07; -0.21031      ;-0.867061     
   2.31641342883E+07; -0.217192     ;-0.865335     
   2.32722810316E+07; -0.224179     ;-0.863768     
   2.33809326812E+07; -0.231332     ;-0.861868     
   2.34900915945E+07; -0.238882     ;-0.859385     
   2.35997601396E+07; -0.245694     ;-0.858574     
   2.37099406959E+07; -0.252457     ;-0.85676      
   2.38206356539E+07; -0.259822     ;-0.854194     
   2.39318474150E+07; -0.267415     ;-0.852216     
   2.40435783922E+07; -0.274748     ;-0.850607     
   2.41558310095E+07; -0.281865     ;-0.848378     
   2.42686077023E+07; -0.28853      ;-0.845831     
   2.43819109173E+07; -0.295995     ;-0.844487     
   2.44957431128E+07; -0.302979     ;-0.841449     
   2.46101067583E+07; -0.309905     ;-0.838722     
   2.47250043351E+07; -0.316972     ;-0.836692     
   2.48404383360E+07; -0.323379     ;-0.834581     
   2.49564112653E+07; -0.330731     ;-0.832237     
   2.50729256392E+07; -0.337971     ;-0.830265     
   2.51899839856E+07; -0.345441     ;-0.829774     
   2.53075888439E+07; -0.353529     ;-0.827309     
   2.54257427659E+07; -0.361412     ;-0.824736     
   2.55444483149E+07; -0.36943      ;-0.822884     
   2.56637080662E+07; -0.37777      ;-0.82058      
   2.57835246073E+07; -0.385866     ;-0.816875     
   2.59039005378E+07; -0.395085     ;-0.814416     
   2.60248384692E+07; -0.404176     ;-0.811286     
   2.61463410253E+07; -0.412702     ;-0.807887     
   2.62684108422E+07; -0.421834     ;-0.803297     
   2.63910505683E+07; -0.430762     ;-0.799048     
   2.65142628644E+07; -0.439423     ;-0.794711     
   2.66380504035E+07; -0.447693     ;-0.789887     
   2.67624158715E+07; -0.455107     ;-0.784734     
   2.68873619663E+07; -0.463134     ;-0.780146     
   2.70128913989E+07; -0.471951     ;-0.775087     
   2.71390068926E+07; -0.479747     ;-0.770513     
   2.72657111837E+07; -0.486856     ;-0.766393     
   2.73930070210E+07; -0.494629     ;-0.762119     
   2.75208971662E+07; -0.502561     ;-0.757925     
   2.76493843942E+07; -0.509756     ;-0.752155     
   2.77784714923E+07; -0.519323     ;-0.746611     
   2.79081612614E+07; -0.527968     ;-0.740973     
   2.80384565151E+07; -0.534765     ;-0.735844     
   2.81693600801E+07; -0.543339     ;-0.730935     
   2.83008747966E+07; -0.551473     ;-0.724824     
   2.84330035179E+07; -0.559176     ;-0.720948     
   2.85657491105E+07; -0.566513     ;-0.715276     
   2.86991144545E+07; -0.573946     ;-0.70918      
   2.88331024432E+07; -0.582737     ;-0.703267     
   2.89677159837E+07; -0.590397     ;-0.696837     
   2.91029579965E+07; -0.598174     ;-0.690752     
   2.92388314157E+07; -0.608026     ;-0.683883     
   2.93753391892E+07; -0.61777      ;-0.67728      
   2.95124842786E+07; -0.625935     ;-0.669438     
   2.96502696593E+07; -0.634882     ;-0.661237     
   2.97886983207E+07; -0.643947     ;-0.653186     
   2.99277732661E+07; -0.651772     ;-0.646503     
   3.00674975128E+07; -0.659246     ;-0.638564     
   3.02078740922E+07; -0.667441     ;-0.630443     
   3.03489060499E+07; -0.675115     ;-0.623154     
   3.04905964456E+07; -0.683145     ;-0.615497     
   3.06329483533E+07; -0.690853     ;-0.607037     
   3.07759648616E+07; -0.698823     ;-0.598428     
   3.09196490732E+07; -0.70614      ;-0.590491     
   3.10640041054E+07; -0.713829     ;-0.580995     
   3.12090330902E+07; -0.721452     ;-0.572313     
   3.13547391740E+07; -0.728759     ;-0.562716     
   3.15011255179E+07; -0.736734     ;-0.553132     
   3.16481952980E+07; -0.74371      ;-0.543314     
   3.17959517050E+07; -0.750633     ;-0.533286     
   3.19443979446E+07; -0.758806     ;-0.522157     
   3.20935372374E+07; -0.7646       ;-0.512017     
   3.22433728190E+07; -0.770739     ;-0.501455     
   3.23939079403E+07; -0.777676     ;-0.492193     
   3.25451458671E+07; -0.784343     ;-0.481246     
   3.26970898808E+07; -0.789858     ;-0.471052     
   3.28497432778E+07; -0.795697     ;-0.460305     
   3.30031093699E+07; -0.802073     ;-0.448296     
   3.31571914847E+07; -0.806485     ;-0.437648     
   3.33119929650E+07; -0.812758     ;-0.426369     
   3.34675171693E+07; -0.818593     ;-0.414715     
   3.36237674717E+07; -0.822802     ;-0.402563     
   3.37807472624E+07; -0.827893     ;-0.391629     
   3.39384599469E+07; -0.833078     ;-0.378692     
   3.40969089470E+07; -0.839282     ;-0.366586     
   3.42560977004E+07; -0.843603     ;-0.353862     
   3.44160296607E+07; -0.848964     ;-0.339964     
   3.45767082978E+07; -0.853229     ;-0.326788     
   3.47381370976E+07; -0.857582     ;-0.313136     
   3.49003195625E+07; -0.860511     ;-0.29945      
   3.50632592111E+07; -0.864403     ;-0.287099     
   3.52269595786E+07; -0.868466     ;-0.273342     
   3.53914242164E+07; -0.87173      ;-0.258757     
   3.55566566927E+07; -0.874063     ;-0.245434     
   3.57226605924E+07; -0.876279     ;-0.230941     
   3.58894395170E+07; -0.87859      ;-0.216619     
   3.60569970849E+07; -0.880972     ;-0.202094     
   3.62253369313E+07; -0.881243     ;-0.187744     
   3.63944627086E+07; -0.882052     ;-0.172625     
   3.65643780859E+07; -0.882343     ;-0.158214     
   3.67350867496E+07; -0.882032     ;-0.143062     
   3.69065924035E+07; -0.881356     ;-0.127498     
   3.70788987684E+07; -0.878521     ;-0.113147     
   3.72520095827E+07; -0.876493     ;-0.0979169    
   3.74259286020E+07; -0.87376      ;-0.0844895    
   3.76006595997E+07; -0.870348     ;-0.0700758    
   3.77762063666E+07; -0.865642     ;-0.0570361    
   3.79525727113E+07; -0.860904     ;-0.0445246    
   3.81297624603E+07; -0.855599     ;-0.0329172    
   3.83077794577E+07; -0.850903     ;-0.0225556    
   3.84866275658E+07; -0.845284     ;-0.0129542    
   3.86663106647E+07; -0.840695     ;-0.00345112   
   3.88468326529E+07; -0.836746     ; 0.00482838   
   3.90281974467E+07; -0.834062     ; 0.0110327    
   3.92104089811E+07; -0.83287      ; 0.017163     
   3.93934712093E+07; -0.832561     ; 0.0247614    
   3.95773881028E+07; -0.835052     ; 0.0328194    
   3.97621636519E+07; -0.836615     ; 0.0420674    
   3.99478018654E+07; -0.837934     ; 0.0537447    
   4.01343067708E+07; -0.839571     ; 0.0658184    
   4.03216824145E+07; -0.840031     ; 0.0779182    
   4.05099328617E+07; -0.839235     ; 0.0913459    
   4.06990621966E+07; -0.837931     ; 0.104292     
   4.08890745225E+07; -0.837853     ; 0.11601      
   4.10799739618E+07; -0.837066     ; 0.128426     
   4.12717646562E+07; -0.837011     ; 0.143051     
   4.14644507667E+07; -0.836084     ; 0.158076     
   4.16580364737E+07; -0.833354     ; 0.173067     
   4.18525259773E+07; -0.830799     ; 0.188408     
   4.20479234969E+07; -0.825402     ; 0.201195     
   4.22442332719E+07; -0.820437     ; 0.218332     
   4.24414595613E+07; -0.814175     ; 0.232864     
   4.26396066441E+07; -0.808515     ; 0.247315     
   4.28386788191E+07; -0.800055     ; 0.261452     
   4.30386804054E+07; -0.793702     ; 0.273309     
   4.32396157421E+07; -0.786536     ; 0.286156     
   4.34414891886E+07; -0.779945     ; 0.299454     
   4.36443051248E+07; -0.772258     ; 0.311148     
   4.38480679508E+07; -0.765724     ; 0.323164     
   4.40527820874E+07; -0.758867     ; 0.337399     
   4.42584519759E+07; -0.751058     ; 0.350081     
   4.44650820786E+07; -0.742791     ; 0.362964     
   4.46726768783E+07; -0.732432     ; 0.376828     
   4.48812408790E+07; -0.721769     ; 0.389913     
   4.50907786056E+07; -0.711083     ; 0.401921     
   4.53012946042E+07; -0.700052     ; 0.414131     
   4.55127934419E+07; -0.687935     ; 0.42735      
   4.57252797075E+07; -0.672973     ; 0.438249     
   4.59387580110E+07; -0.657781     ; 0.447163     
   4.61532329838E+07; -0.642898     ; 0.455        
   4.63687092791E+07; -0.627073     ; 0.462285     
   4.65851915719E+07; -0.610138     ; 0.467393     
   4.68026845588E+07; -0.593905     ; 0.470249     
   4.70211929585E+07; -0.577555     ; 0.472713     
   4.72407215117E+07; -0.560674     ; 0.469832     
   4.74612749811E+07; -0.545547     ; 0.465376     
   4.76828581519E+07; -0.533423     ; 0.457198     
   4.79054758313E+07; -0.526843     ; 0.447626     
   4.81291328493E+07; -0.524303     ; 0.439273     
   4.83538340582E+07; -0.52414      ; 0.435548     
   4.85795843329E+07; -0.523102     ; 0.428309     
   4.88063885715E+07; -0.525562     ; 0.421905     
   4.90342516943E+07; -0.533944     ; 0.41611      
   4.92631786452E+07; -0.545218     ; 0.415816     
   4.94931743908E+07; -0.55833      ; 0.418656     
   4.97242439210E+07; -0.571663     ; 0.428218     
   4.99563922490E+07; -0.585048     ; 0.442989     
   5.01896244114E+07; -0.593686     ; 0.460791     
   5.04239454683E+07; -0.600285     ; 0.480392     
   5.06593605035E+07; -0.604602     ; 0.502876     
   5.08958746244E+07; -0.604952     ; 0.527422     
   5.11334929623E+07; -0.602011     ; 0.553438     
   5.13722206726E+07; -0.593189     ; 0.580415     
   5.16120629345E+07; -0.576431     ; 0.604456     
   5.18530249516E+07; -0.560922     ; 0.619847     
   5.20951119517E+07; -0.548511     ; 0.635074     
   5.23383291871E+07; -0.534529     ; 0.650841     
   5.25826819344E+07; -0.521158     ; 0.665395     
   5.28281754951E+07; -0.505418     ; 0.678611     
   5.30748151953E+07; -0.491446     ; 0.689693     
   5.33226063859E+07; -0.47802      ; 0.699499     
   5.35715544431E+07; -0.466476     ; 0.710961     
   5.38216647678E+07; -0.453854     ; 0.722589     
   5.40729427863E+07; -0.4417       ; 0.735105     
   5.43253939503E+07; -0.42845      ; 0.747745     
   5.45790237369E+07; -0.41376      ; 0.760393     
   5.48338376487E+07; -0.399289     ; 0.773138     
   5.50898412140E+07; -0.381993     ; 0.786983     
   5.53470399871E+07; -0.365858     ; 0.795463     
   5.56054395479E+07; -0.35014      ; 0.808051     
   5.58650455027E+07; -0.3316       ; 0.821512     
   5.61258634837E+07; -0.31037      ; 0.830853     
   5.63878991496E+07; -0.291056     ; 0.838514     
   5.66511581853E+07; -0.273021     ; 0.84838      
   5.69156463025E+07; -0.251522     ; 0.858067     
   5.71813692393E+07; -0.228408     ; 0.865457     
   5.74483327608E+07; -0.205138     ; 0.872003     
   5.77165426589E+07; -0.181463     ; 0.875702     
   5.79860047526E+07; -0.156826     ; 0.875862     
   5.82567248881E+07; -0.13501      ; 0.874158     
   5.85287089388E+07; -0.11667      ; 0.869865     
   5.88019628055E+07; -0.102951     ; 0.866834     
   5.90764924166E+07; -0.0901471    ; 0.869038     
   5.93523037283E+07; -0.076184     ; 0.873921     
   5.96294027244E+07; -0.0584261    ; 0.878943     
   5.99077954168E+07; -0.0404726    ; 0.88349      
   6.01874878453E+07; -0.0196919    ; 0.886696     
   6.04684860782E+07; -0.00212813   ; 0.887505     
   6.07507962117E+07;  0.016884     ; 0.891626     
   6.10344243707E+07;  0.0381374    ; 0.894236     
   6.13193767089E+07;  0.0592913    ; 0.895885     
   6.16056594083E+07;  0.0804043    ; 0.89654      
   6.18932786801E+07;  0.101404     ; 0.896561     
   6.21822407643E+07;  0.123433     ; 0.896731     
   6.24725519302E+07;  0.146239     ; 0.895628     
   6.27642184762E+07;  0.169002     ; 0.892568     
   6.30572467302E+07;  0.189983     ; 0.890667     
   6.33516430496E+07;  0.213852     ; 0.888669     
   6.36474138216E+07;  0.238515     ; 0.881679     
   6.39445654630E+07;  0.262527     ; 0.878629     
   6.42431044208E+07;  0.285997     ; 0.871586     
   6.45430371719E+07;  0.309487     ; 0.86308      
   6.48443702236E+07;  0.332063     ; 0.853559     
   6.51471101134E+07;  0.353182     ; 0.84307      
   6.54512634096E+07;  0.373723     ; 0.832402     
   6.57568367108E+07;  0.393084     ; 0.821318     
   6.60638366467E+07;  0.412419     ; 0.809943     
   6.63722698778E+07;  0.431288     ; 0.798796     
   6.66821430959E+07;  0.449781     ; 0.78684      
   6.69934630236E+07;  0.467692     ; 0.77569      
   6.73062364155E+07;  0.486388     ; 0.763262     
   6.76204700572E+07;  0.504128     ; 0.750953     
   6.79361707662E+07;  0.521022     ; 0.738104     
   6.82533453919E+07;  0.537804     ; 0.725269     
   6.85720008156E+07;  0.555184     ; 0.711918     
   6.88921439506E+07;  0.571568     ; 0.698733     
   6.92137817427E+07;  0.588102     ; 0.686146     
   6.95369211701E+07;  0.605215     ; 0.672083     
   6.98615692434E+07;  0.621971     ; 0.658133     
   7.01877330060E+07;  0.638903     ; 0.642707     
   7.05154195343E+07;  0.65513      ; 0.626652     
   7.08446359376E+07;  0.670684     ; 0.610643     
   7.11753893586E+07;  0.686045     ; 0.594476     
   7.15076869730E+07;  0.701113     ; 0.577933     
   7.18415359903E+07;  0.716747     ; 0.560475     
   7.21769436536E+07;  0.731544     ; 0.543441     
   7.25139172397E+07;  0.74661      ; 0.52528      
   7.28524640594E+07;  0.761432     ; 0.506901     
   7.31925914578E+07;  0.775858     ; 0.487453     
   7.35343068141E+07;  0.790006     ; 0.467443     
   7.38776175420E+07;  0.803055     ; 0.44641      
   7.42225310900E+07;  0.816393     ; 0.424625     
   7.45690549410E+07;  0.829127     ; 0.402425     
   7.49171966131E+07;  0.840725     ; 0.379486     
   7.52669636596E+07;  0.852011     ; 0.355661     
   7.56183636687E+07;  0.86163      ; 0.331268     
   7.59714042643E+07;  0.87038      ; 0.307436     
   7.63260931059E+07;  0.878526     ; 0.283304     
   7.66824378886E+07;  0.886175     ; 0.259427     
   7.70404463437E+07;  0.894142     ; 0.235226     
   7.74001262381E+07;  0.900928     ; 0.210513     
   7.77614853756E+07;  0.907734     ; 0.184949     
   7.81245315959E+07;  0.913596     ; 0.159637     
   7.84892727755E+07;  0.918376     ; 0.132968     
   7.88557168278E+07;  0.922813     ; 0.106855     
   7.92238717030E+07;  0.926614     ; 0.0807322    
   7.95937453884E+07;  0.929312     ; 0.0526235    
   7.99653459087E+07;  0.931474     ; 0.0254516    
   8.03386813259E+07;  0.932388     ;-0.00272162   
   8.07137597398E+07;  0.932181     ;-0.0306952    
   8.10905892880E+07;  0.931612     ;-0.0589675    
   8.14691781460E+07;  0.929764     ;-0.0873433    
   8.18495345275E+07;  0.927306     ;-0.11507      
   8.22316666845E+07;  0.923715     ;-0.144388     
   8.26155829078E+07;  0.918775     ;-0.17247      
   8.30012915265E+07;  0.913097     ;-0.201555     
   8.33888009088E+07;  0.905872     ;-0.229413     
   8.37781194620E+07;  0.898337     ;-0.257236     
   8.41692556327E+07;  0.890035     ;-0.285548     
   8.45622179067E+07;  0.880857     ;-0.313387     
   8.49570148096E+07;  0.87067      ;-0.340942     
   8.53536549067E+07;  0.859841     ;-0.369029     
   8.57521468035E+07;  0.847109     ;-0.395839     
   8.61524991454E+07;  0.834158     ;-0.423239     
   8.65547206183E+07;  0.820715     ;-0.450868     
   8.69588199487E+07;  0.805346     ;-0.477033     
   8.73648059037E+07;  0.788894     ;-0.503479     
   8.77726872915E+07;  0.770646     ;-0.529042     
   8.81824729612E+07;  0.75292      ;-0.553086     
   8.85941718035E+07;  0.73444      ;-0.577542     
   8.90077927504E+07;  0.714773     ;-0.601911     
   8.94233447757E+07;  0.694008     ;-0.625889     
   8.98408368949E+07;  0.672166     ;-0.649216     
   9.02602781660E+07;  0.649035     ;-0.672479     
   9.06816776888E+07;  0.625206     ;-0.694191     
   9.11050446059E+07;  0.599775     ;-0.714907     
   9.15303881026E+07;  0.574702     ;-0.736942     
   9.19577174068E+07;  0.547845     ;-0.755609     
   9.23870417898E+07;  0.519969     ;-0.775602     
   9.28183705661E+07;  0.49122      ;-0.792733     
   9.32517130935E+07;  0.462524     ;-0.809144     
   9.36870787737E+07;  0.432116     ;-0.824553     
   9.41244770522E+07;  0.400353     ;-0.839112     
   9.45639174187E+07;  0.368755     ;-0.852549     
   9.50054094070E+07;  0.335612     ;-0.864871     
   9.54489625957E+07;  0.303077     ;-0.874977     
   9.58945866078E+07;  0.269486     ;-0.884696     
   9.63422911115E+07;  0.235858     ;-0.893288     
   9.67920858199E+07;  0.201564     ;-0.899356     
   9.72439804917E+07;  0.167501     ;-0.90494      
   9.76979849309E+07;  0.133479     ;-0.909805     
   9.81541089876E+07;  0.0980483    ;-0.912674     
   9.86123625575E+07;  0.0630181    ;-0.914794     
   9.90727555827E+07;  0.0286764    ;-0.91451      
   9.95352980519E+07; -0.00687934   ;-0.914389     
   1.00000000000E+08; -0.0433107    ;-0.912449     
